<?xml version="1.0" encoding="UTF-8"?>
<ImplementationGuide
    xmlns="http://hl7.org/fhir">
    <id value="bser"/>
    <meta>
        <versionId value="268"/>
        <lastUpdated value="2019-12-20T16:42:50.000-05:00"/>
        <security>
            <system value="https://trifolia-fhir.lantanagroup.com/security"/>
            <code value="everyone^write"/>
        </security>
        <security>
            <system value="https://trifolia-fhir.lantanagroup.com/security"/>
            <code value="everyone^read"/>
        </security>
    </meta>
    <contained>
        <Binary>
            <id value="7807"/>
            <contentType value="text/markdown"/>
            <data value=""/>
        </Binary>
    </contained>
    <contained>
        <Binary>
            <id value="8576"/>
            <contentType value="text/markdown"/>
            <data value=""/>
        </Binary>
    </contained>
    <contained>
        <Binary>
            <id value="7622"/>
            <contentType value="text/markdown"/>
            <data value=""/>
        </Binary>
    </contained>
    <contained>
        <Binary>
            <id value="5728"/>
            <contentType value="text/markdown"/>
            <data value=""/>
        </Binary>
    </contained>
    <contained>
        <Binary>
            <id value="7237"/>
            <contentType value="text/markdown"/>
            <data value=""/>
        </Binary>
    </contained>
    <contained>
        <Binary>
            <id value="9422"/>
            <contentType value="text/markdown"/>
            <data value=""/>
        </Binary>
    </contained>
    <contained>
        <Binary>
            <id value="8739"/>
            <contentType value="text/markdown"/>
            <data value=""/>
        </Binary>
    </contained>
    <contained>
        <Binary>
            <id value="6874"/>
            <contentType value="text/markdown"/>
            <data value=""/>
        </Binary>
    </contained>
    <contained>
        <Binary>
            <id value="7452"/>
            <contentType value="text/markdown"/>
            <data value=""/>
        </Binary>
    </contained>
    <contained>
        <Binary>
            <id value="7634"/>
            <contentType value="text/markdown"/>
            <data value=""/>
        </Binary>
    </contained>
    <contained>
        <Binary>
            <id value="7741"/>
            <contentType value="text/markdown"/>
            <data value=""/>
        </Binary>
    </contained>
    <contained>
        <Binary>
            <id value="7509"/>
            <contentType value="text/markdown"/>
            <data value=""/>
        </Binary>
    </contained>
    <contained>
        <Binary>
            <id value="5503"/>
            <contentType value="text/markdown"/>
            <data value=""/>
        </Binary>
    </contained>
    <contained>
        <Binary>
            <id value="9491"/>
            <contentType value="text/markdown"/>
            <data value=""/>
        </Binary>
    </contained>
    <contained>
        <Binary>
            <id value="9107"/>
            <contentType value="text/markdown"/>
            <data value=""/>
        </Binary>
    </contained>
    <contained>
        <Binary>
            <id value="6902"/>
            <contentType value="text/markdown"/>
            <data value=""/>
        </Binary>
    </contained>
    <contained>
        <Binary>
            <id value="6532"/>
            <contentType value="text/markdown"/>
            <data value=""/>
        </Binary>
    </contained>
    <contained>
        <Binary>
            <id value="6441"/>
            <contentType value="text/markdown"/>
            <data value=""/>
        </Binary>
    </contained>
    <contained>
        <Binary>
            <id value="9788"/>
            <contentType value="text/markdown"/>
            <data value=""/>
        </Binary>
    </contained>
    <contained>
        <Binary>
            <id value="5115"/>
            <contentType value="text/markdown"/>
            <data value=""/>
        </Binary>
    </contained>
    <url value="http://hl7.org/fhir/us/bser/ImplementationGuide/bser"/>
    <version value="1.0.0"/>
    <name value="BSeR_BidirectionalServices_eReferral"/>
    <title value="BSeR: Bidirectional Services_eReferral"/>
    <status value="draft"/>
    <publisher value="Health Level Seven International"/>
    <description value="The Bidirectional Services eReferral (BSeR) FHIR implementation guide provides guidance for using the HL7 Fast Healthcare Interoperability Resources (FHIR) standard as an exchange format for clinical and non-clinical service requests. It is a collection of profiled FHIR resources designed for use in information exchanges supporting the placement of a service request by a referral initiating provider and the reporting of service delivery outcomes by a referral recipient provider. The goal of the BSeR project is to streamline and enhance the efficacy of the exchange of health information between health care systems and community services organizations involved in addressing chronic health conditions by establishing information exchange standards for electronic referrals and referral outcome reporting. &#xA;&#xA;"/>
    <packageId value="hl7.fhir.us.bser"/>
    <fhirVersion value="4.0.0"/>
    <fhirVersion value="4.0.0"/>
    <dependsOn>
        <extension url="https://trifolia-fhir.lantanagroup.com/r4/StructureDefinition/extension-ig-depends-on-location">
            <valueString value="https://www.hl7.org/fhir/us/core"/>
        </extension>
        <extension url="https://trifolia-fhir.lantanagroup.com/r4/StructureDefinition/extension-ig-depends-on-name">
            <valueString value="USCore"/>
        </extension>
        <uri value="http://hl7.org/fhir/us/core/ImplementationGuide/hl7.fhir.us.core"/>
        <packageId value="hl7.fhir.us.core"/>
        <version value="3.1.0"/>
    </dependsOn>
    <definition>
        <grouping>
            <name value="default"/>
        </grouping>
        <resource>
            <reference>
                <reference value="StructureDefinition/BSeR-Diagnosis"/></reference>
            <exampleBoolean value="false"/>
        </resource>
        <resource>
            <reference>
                <reference value="StructureDefinition/BSeR-EducationLevel"/></reference>
            <exampleBoolean value="false"/>
        </resource>
        <resource>
            <reference>
                <reference value="StructureDefinition/BSeR-Coverage"/></reference>
            <exampleBoolean value="false"/>
        </resource>
        <resource>
            <reference>
                <reference value="StructureDefinition/BSeR-Organization"/></reference>
            <exampleBoolean value="false"/>
        </resource>
        <resource>
            <reference>
                <reference value="StructureDefinition/BSeR-PatientConsent"/></reference>
            <exampleBoolean value="false"/>
        </resource>
        <resource>
            <reference>
                <reference value="StructureDefinition/BSeR-Practitioner"/></reference>
            <exampleBoolean value="false"/>
        </resource>
        <resource>
            <reference>
                <reference value="StructureDefinition/BSeR-ReferralActivityStatus"/></reference>
            <exampleBoolean value="false"/>
        </resource>
        <resource>
            <reference>
                <reference value="StructureDefinition/BSeR-ServiceDeliveryLocation"/></reference>
            <exampleBoolean value="false"/>
        </resource>
        <resource>
            <reference>
                <reference value="StructureDefinition/BSeR-ReferralMessageHeader"/>
                <display value="BSeR_ReferralMessageHeader"/>
            </reference>
            <name value="BSeR_ReferralMessageHeader"/>
            <exampleBoolean value="false"/>
        </resource>
        <resource>
            <reference>
                <reference value="StructureDefinition/BSeR-ReferralTask"/>
                <display value="BSeR_ReferralTask"/>
            </reference>
            <name value="BSeR_ReferralTask"/>
            <exampleBoolean value="false"/>
        </resource>
        <resource>
            <reference>
                <reference value="StructureDefinition/BSeR-ReferralInitiatorPractitionerRole"/>
                <display value="BSeR_ReferralInitiatorPractitionerRole"/>
            </reference>
            <name value="BSeR_ReferralInitiatorPractitionerRole"/>
            <exampleBoolean value="false"/>
        </resource>
        <resource>
            <reference>
                <reference value="StructureDefinition/BSeR-ReferralRecipientPractitionerRole"/>
                <display value="BSeR-ReferralRecipientPractitionerRole"/>
            </reference>
            <name value="BSeR_ReferralRecipientPractitionerRole"/>
            <exampleBoolean value="false"/>
        </resource>
        <resource>
            <reference>
                <reference value="StructureDefinition/BSeR-ReferralServiceRequest"/>
                <display value="BSeR_ReferralServiceRequest"/>
            </reference>
            <name value="BSeR_ReferralServiceRequest"/>
            <exampleBoolean value="false"/>
        </resource>
        <resource>
            <reference>
                <reference value="StructureDefinition/BSeR-ReferralFeedbackComposition"/>
                <display value="BSeR_ReferralFeedbackComposition"/>
            </reference>
            <name value="BSeR_ReferralFeedbackComposition"/>
            <exampleBoolean value="false"/>
        </resource>
        <resource>
            <reference>
                <reference value="CapabilityStatement/capabilitystatement-bser"/>
                <display value="Capability Statement BSeR"/>
            </reference>
            <name value="Capability Statement BSeR"/>
            <exampleBoolean value="false"/>
        </resource>
        <resource>
            <extension url="https://trifolia-fhir.lantanagroup.com/StructureDefinition/extension-ig-resource-file-path">
                <valueString value="practitioner/practitioner-us-core-henry-seven.xml"/>
            </extension>
            <reference>
                <reference value="Practitioner/practitioner-us-core-henry-seven"/>
                <display value="Practitioner Seven Henry"/>
            </reference>
            <name value="Practitioner Seven Henry"/>
            <exampleBoolean value="true"/>
        </resource>
        <resource>
            <reference>
                <reference value="StructureDefinition/BSeR-ArthritisReferralSupportingInformation"/>
                <display value="BSeR_ArthritisReferralSupportingInformation"/>
            </reference>
            <name value="BSeR_ArthritisReferralSupportingInformation"/>
            <exampleBoolean value="false"/>
        </resource>
        <resource>
            <reference>
                <reference value="StructureDefinition/BSeR-HypertensionReferralSupportingInformation"/>
                <display value="BSeR_HypertensionReferralSupportingInformation"/>
            </reference>
            <name value="BSeR_HypertensionReferralSupportingInformation"/>
            <exampleBoolean value="false"/>
        </resource>
        <resource>
            <reference>
                <reference value="StructureDefinition/BSeR-EarlyChildhoodNutritionReferralSupportingInformation"/>
                <display value="BSeR_EarlyChildhoodNutritionReferralSupportingInformation"/>
            </reference>
            <name value="BSeR_EarlyChildhoodNutritionReferralSupportingInformation"/>
            <exampleBoolean value="false"/>
        </resource>
        <resource>
            <reference>
                <reference value="StructureDefinition/BSeR-DiabetesPreventionReferralSupportingInformation"/>
                <display value="BSeR_DiabetesPreventionReferralSupportingInformation"/>
            </reference>
            <name value="BSeR_DiabetesPreventionReferralSupportingInformation"/>
            <exampleBoolean value="false"/>
        </resource>
        <resource>
            <reference>
                <reference value="StructureDefinition/BSeR-TobaccoUseCessationReferralSupportingInformation"/>
                <display value="BSeR_TobaccoUseCessationReferralSupportingInformation"/>
            </reference>
            <name value="BSeR_TobaccoUseCessationReferralSupportingInformation"/>
            <exampleBoolean value="false"/>
        </resource>
        <resource>
            <extension url="https://trifolia-fhir.lantanagroup.com/StructureDefinition/extension-ig-resource-file-path">
                <valueString value="structuredefinition/BSeR-ObesityReferralSupportingInformation.xml"/>
            </extension>
            <reference>
                <reference value="StructureDefinition/BSeR-ObesityReferralSupportingInformation"/>
                <display value="BSeR_ObesityReferralSupportingInformation"/>
            </reference>
            <name value="BSeR_ObesityReferralSupportingInformation"/>
            <exampleBoolean value="false"/>
        </resource>
        <resource>
            <reference>
                <reference value="Organization/organization-us-core-organization-acme-lab"/>
                <display value="Acme Labs"/>
            </reference>
            <name value="Acme Labs"/>
            <exampleBoolean value="true"/>
        </resource>
        <resource>
            <reference>
                <reference value="Organization/organization-us-core-organization-saint-luke"/>
                <display value="Saint Luke's Hospital of Kansas City"/>
            </reference>
            <name value="Saint Luke's Hospital of Kansas City"/>
            <exampleBoolean value="true"/>
        </resource>
        <resource>
            <reference>
                <reference value="StructureDefinition/BSeR-TelcomCommunicationPreferences"/>
                <display value="BSeR-TelcomCommunicationPreferences"/>
            </reference>
            <name value="BSeR-TelcomCommunicationPreferences"/>
            <exampleBoolean value="false"/>
        </resource>
        <resource>
            <reference>
                <reference value="StructureDefinition/BSeR-EarlyChildhoodNutritionObservation"/>
                <display value="BSeR_EarlyChildhoodNutritionObservation"/>
            </reference>
            <name value="BSeR_EarlyChildhoodNutritionObservation"/>
            <exampleBoolean value="false"/>
        </resource>
        <resource>
            <reference>
                <reference value="StructureDefinition/BSeR-MedicationStatement"/>
                <display value="BSeR_MedicationStatement"/>
            </reference>
            <name value="BSeR_MedicationStatement"/>
            <exampleBoolean value="false"/>
        </resource>
        <resource>
            <reference>
                <reference value="StructureDefinition/BSeR-NRT-AuthorizationStatus"/>
                <display value="BSeR_NRT-AuthorizationStatus"/>
            </reference>
            <name value="BSeR_NRT-AuthorizationStatus"/>
            <exampleBoolean value="false"/>
        </resource>
        <resource>
            <reference>
                <reference value="StructureDefinition/BSeR-HA1C-Observation"/>
                <display value="BSeR_HA1C-Observation"/>
            </reference>
            <name value="BSeR_HA1C-Observation"/>
            <exampleBoolean value="false"/>
        </resource>
        <resource>
            <reference>
                <reference value="StructureDefinition/BSeR-ArthritisFeedbackObservation"/>
                <display value="BSeR_ArthritisFeedbackObservation"/>
            </reference>
            <name value="BSeR_ArthritisFeedbackObservation"/>
            <exampleBoolean value="false"/>
        </resource>
        <resource>
            <reference>
                <reference value="StructureDefinition/BSeR-EarlyChildhoodNutritionFeedbackObservation"/>
                <display value="BSeR_EarlyChildhoodNutritionFeedbackObservation"/>
            </reference>
            <name value="BSeR_EarlyChildhoodNutritionFeedbackObservation"/>
            <exampleBoolean value="false"/>
        </resource>
        <resource>
            <reference>
                <reference value="StructureDefinition/BSeR-ParticipationFeedbackObservation"/>
                <display value="BSeR_ParticipationFeedbackObservation"/>
            </reference>
            <name value="BSeR_ParticipationFeedbackObservation"/>
            <exampleBoolean value="false"/>
        </resource>
        <resource>
            <reference>
                <reference value="StructureDefinition/BSeR-TobaccoUseCessationFeedbackObservation"/>
                <display value="BSeR_TobaccoUseCessationFeedbackObservation"/>
            </reference>
            <name value="BSeR_TobaccoUseCessationFeedbackObservation"/>
            <exampleBoolean value="false"/>
        </resource>
        <resource>
            <reference>
                <reference value="StructureDefinition/BSeR-ArthritisReferralFeedbackSupportingInformation"/>
                <display value="BSeR_ArthritisReferralFeedbackSupportingInformation"/>
            </reference>
            <name value="BSeR_ArthritisReferralFeedbackSupportingInformation"/>
            <exampleBoolean value="false"/>
        </resource>
        <resource>
            <reference>
                <reference value="StructureDefinition/BSeR-DiabetesPreventionReferralFeedbackSupportingInformation"/>
                <display value="BSeR_DiabetesPreventionReferralFeedbackSupportingInformation"/>
            </reference>
            <name value="BSeR_DiabetesPreventionReferralFeedbackSupportingInformation"/>
            <exampleBoolean value="false"/>
        </resource>
        <resource>
            <reference>
                <reference value="StructureDefinition/BSeR-ChildhoodNutritionReferralFeedbackSupportingInformation"/>
                <display value="BSeR_EarlyChildhoodNutritionReferralFeedbackSupportingInformation"/>
            </reference>
            <name value="BSeR_EarlyChildhoodNutritionReferralFeedbackSupportingInformation"/>
            <exampleBoolean value="false"/>
        </resource>
        <resource>
            <reference>
                <reference value="StructureDefinition/BSeR-HypertensionReferralFeedbackSupportingInformation"/>
                <display value="BSeR_HypertensionReferralFeedbackSupportingInformation"/>
            </reference>
            <name value="BSeR_HypertensionReferralFeedbackSupportingInformation"/>
            <exampleBoolean value="false"/>
        </resource>
        <resource>
            <reference>
                <reference value="StructureDefinition/BSeR-ObesityReferralFeedbackSupportingInformation"/>
                <display value="BSeR_ObesityReferralFeedbackSupportingInformation"/>
            </reference>
            <name value="BSeR_ObesityReferralFeedbackSupportingInformation"/>
            <exampleBoolean value="false"/>
        </resource>
        <resource>
            <reference>
                <reference value="StructureDefinition/BSeR-TobaccoUseCessationReferralFeedbackSupportingInformation"/>
                <display value="BSeR_TobaccoUseCessationReferralFeedbackSupportingInformation"/>
            </reference>
            <name value="BSeR_TobaccoUseCessationReferralFeedbackSupportingInformation"/>
            <exampleBoolean value="false"/>
        </resource>
        <resource>
            <reference>
                <reference value="CodeSystem/bser"/>
                <display value="BSeR"/>
            </reference>
            <name value="BSeR"/>
            <exampleBoolean value="false"/>
        </resource>
        <resource>
            <reference>
                <reference value="Media/Activities"/></reference>
            <exampleBoolean value="false"/>
        </resource>
        <resource>
            <extension url="https://trifolia-fhir.lantanagroup.com/StructureDefinition/extension-ig-resource-file-path">
                <valueString value="observation/observation-us-core-smokingstatus-eve-everywoman.xml"/>
            </extension>
            <reference>
                <reference value="Observation/observation-us-core-smokingstatus-eve-everywoman"/>
                <display value="observation-us-core-smokingstatus-eve-everywoman"/>
            </reference>
            <name value="observation-us-core-smokingstatus-eve-everywoman"/>
            <exampleBoolean value="true"/>
        </resource>
        <resource>
            <extension url="https://trifolia-fhir.lantanagroup.com/StructureDefinition/extension-ig-resource-file-path">
                <valueString value="observation/observation-BSeR-HA1c-Observation-eve-everywoman.xml"/>
            </extension>
            <reference>
                <reference value="Observation/observation-BSeR-HA1c-Observation-eve-everywoman"/>
                <display value="observation-BSeR-HA1c-Observation-eve-everywoman"/>
            </reference>
            <name value="observation-BSeR-HA1c-Observation-eve-everywoman"/>
            <exampleBoolean value="true"/>
        </resource>
        <resource>
            <extension url="https://trifolia-fhir.lantanagroup.com/StructureDefinition/extension-ig-resource-file-path">
                <valueString value="observation/observation-BSeR-ArthritisFeedbackObservation-1-eve-everywoman.xml"/>
            </extension>
            <reference>
                <reference value="Observation/observation-BSeR-ArthritisFeedbackObservation-1-eve-everywoman"/>
                <display value="observation-BSeR-ArthritisFeedbackObservation-1-eve-everywoman"/>
            </reference>
            <name value="observation-BSeR-ArthritisFeedbackObservation-1-eve-everywoman"/>
            <exampleBoolean value="true"/>
        </resource>
        <resource>
            <extension url="https://trifolia-fhir.lantanagroup.com/StructureDefinition/extension-ig-resource-file-path">
                <valueString value="observation/observation-BSeR-ArthritisFeedbackObservation-2-eve-everywoman.xml"/>
            </extension>
            <reference>
                <reference value="Observation/observation-BSeR-ArthritisFeedbackObservation-2-eve-everywoman"/>
                <display value="observation-BSeR-ArthritisFeedbackObservation-2-eve-everywoman"/>
            </reference>
            <name value="observation-BSeR-ArthritisFeedbackObservation-2-eve-everywoman"/>
            <exampleBoolean value="true"/>
        </resource>
        <resource>
            <extension url="https://trifolia-fhir.lantanagroup.com/StructureDefinition/extension-ig-resource-file-path">
                <valueString value="allergyintolerance/allergyintolerance-us-core-allergyint-eve-everywoman.xml"/>
            </extension>
            <reference>
                <reference value="AllergyIntolerance/allergyintolerance-us-core-allergyint-eve-everywoman"/>
                <display value="allergyintolerance-us-core-allergyint-eve-everywoman"/>
            </reference>
            <name value="allergyintolerance-us-core-allergyint-eve-everywoman"/>
            <exampleBoolean value="true"/>
        </resource>
        <resource>
            <extension url="https://trifolia-fhir.lantanagroup.com/StructureDefinition/extension-ig-resource-file-path">
                <valueString value="observation/observation-blood-pressure-eve-everywoman.xml"/>
            </extension>
            <reference>
                <reference value="Observation/observation-blood-pressure-eve-everywoman"/>
                <display value="observation-blood-pressure-eve-everywoman"/>
            </reference>
            <name value="observation-blood-pressure-eve-everywoman"/>
            <exampleBoolean value="true"/>
        </resource>
        <resource>
            <reference>
                <reference value="Observation/observation-body-height-eve-everywoman"/></reference>
            <name value="observation-body-height-eve-everywoman"/>
            <exampleBoolean value="true"/>
        </resource>
        <resource>
            <extension url="https://trifolia-fhir.lantanagroup.com/StructureDefinition/extension-ig-resource-file-path">
                <valueString value="observation/observation-bmi-eve-everywoman.xml"/>
            </extension>
            <reference>
                <reference value="Observation/observation-bmi-eve-everywoman"/>
                <display value="observation-bmi-eve-everywoman"/>
            </reference>
            <name value="observation-bmi-eve-everywoman"/>
            <exampleBoolean value="true"/>
        </resource>
        <resource>
            <extension url="https://trifolia-fhir.lantanagroup.com/StructureDefinition/extension-ig-resource-file-path">
                <valueString value="observation/observation-body-weight-eve-everywoman.xml"/>
            </extension>
            <reference>
                <reference value="Observation/observation-body-weight-eve-everywoman"/>
                <display value="observation-body-weight-eve-everywoman"/>
            </reference>
            <name value="observation-body-weight-eve-everywoman"/>
            <exampleBoolean value="true"/>
        </resource>
        <resource>
            <extension url="https://trifolia-fhir.lantanagroup.com/StructureDefinition/extension-ig-resource-file-path">
                <valueString value="observation/observation-BSeR-TobaccoUseCessationFeedbackObs-1-eve-everywoman.xml"/>
            </extension>
            <reference>
                <reference value="Observation/observation-BSeR-TobaccoUseCessationFeedbackObs-1-eve-everywoman"/>
                <display value="observation-BSeR-TobaccoUseCessationFeedbackObs-1-eve-everywoman"/>
            </reference>
            <name value="observation-BSeR-TobaccoUseCessationFeedbackObs-1-eve-everywoman"/>
            <exampleBoolean value="true"/>
        </resource>
        <resource>
            <extension url="https://trifolia-fhir.lantanagroup.com/StructureDefinition/extension-ig-resource-file-path">
                <valueString value="observation/observation-BSeR-TobaccoUseCessationFeedbackObs-2-eve-everywoman.xml"/>
            </extension>
            <reference>
                <reference value="Observation/observation-BSeR-TobaccoUseCessationFeedbackObs-2-eve-everywoman"/>
                <display value="observation-BSeR-TobaccoUseCessationFeedbackObs-2-eve-everywoman"/>
            </reference>
            <name value="observation-BSeR-TobaccoUseCessationFeedbackObs-2-eve-everywoman"/>
            <exampleBoolean value="true"/>
        </resource>
        <resource>
            <extension url="https://trifolia-fhir.lantanagroup.com/StructureDefinition/extension-ig-resource-file-path">
                <valueString value="relatedperson/relatedperson-mom-everymom.xml"/>
            </extension>
            <reference>
                <reference value="RelatedPerson/relatedperson-mom-everymom"/></reference>
            <name value="RelatedPerson Mom L Everymom"/>
            <exampleBoolean value="true"/>
        </resource>
        <resource>
            <extension url="https://trifolia-fhir.lantanagroup.com/StructureDefinition/extension-ig-resource-file-path">
                <valueString value="patient/patient-us-core-patient-eve-everywoman.xml"/>
            </extension>
            <reference>
                <reference value="Patient/patient-us-core-patient-eve-everywoman"/>
                <display value="Patient Eve L Everywoman"/>
            </reference>
            <name value="Patient Eve L Everywoman"/>
            <exampleBoolean value="true"/>
        </resource>
        <resource>
            <extension url="https://trifolia-fhir.lantanagroup.com/StructureDefinition/extension-ig-resource-file-path">
                <valueString value="patient/patient-us-core-patient-baby-everybaby.xml"/>
            </extension>
            <reference>
                <reference value="Patient/patient-us-core-patient-baby-everybaby"/>
                <display value="Patient Baby B Everybaby"/>
            </reference>
            <name value="Patient Baby B Everybaby"/>
            <exampleBoolean value="true"/>
        </resource>
        <resource>
            <extension url="https://trifolia-fhir.lantanagroup.com/StructureDefinition/extension-ig-resource-file-path">
                <valueString value="patient/patient-us-core-patient-mom-everymom.xml"/>
            </extension>
            <reference>
                <reference value="Patient/patient-us-core-patient-mom-everymom"/>
                <display value="Patient Mom L Everymom"/>
            </reference>
            <name value="Patient Mom L Everymom"/>
            <exampleBoolean value="true"/>
        </resource>
        <resource>
            <reference>
                <reference value="Media/ParticipantResources"/></reference>
            <exampleBoolean value="false"/>
        </resource>
        <resource>
            <reference>
                <reference value="Media/ReferralInitiator"/></reference>
            <exampleBoolean value="false"/>
        </resource>
        <resource>
            <reference>
                <reference value="Media/ReferralRecipient"/></reference>
            <exampleBoolean value="false"/>
        </resource>
        <resource>
            <reference>
                <reference value="Media/ReferralPatient"/></reference>
            <exampleBoolean value="false"/>
        </resource>
        <resource>
            <reference>
                <reference value="Media/WorkflowManagementResources"/></reference>
            <exampleBoolean value="false"/>
        </resource>
        <resource>
            <reference>
                <reference value="Media/ReferralServiceRequest"/></reference>
            <exampleBoolean value="false"/>
        </resource>
        <resource>
            <reference>
                <reference value="Media/BSeRFHIRIGProilfes"/></reference>
            <exampleBoolean value="false"/>
        </resource>
        <resource>
            <reference>
                <reference value="Media/Scope"/></reference>
            <exampleBoolean value="false"/>
        </resource>
        <resource>
            <reference>
                <reference value="Media/TaskStateMachine"/></reference>
            <exampleBoolean value="false"/>
        </resource>
        <resource>
            <reference>
                <reference value="Media/StateTransitionTriggerEvents"/></reference>
            <exampleBoolean value="false"/>
        </resource>
        <resource>
            <reference>
                <reference value="Media/ReferralRequestClinicalStatements"/></reference>
            <exampleBoolean value="false"/>
        </resource>
        <resource>
            <reference>
                <reference value="Media/RequestFeedbackClinicalStatements"/></reference>
            <exampleBoolean value="false"/>
        </resource>
        <resource>
            <reference>
                <reference value="Media/SupportingInformationBundles"/></reference>
            <exampleBoolean value="false"/>
        </resource>
        <resource>
            <reference>
                <reference value="Media/BSeRIGReferralUseCases"/></reference>
            <exampleBoolean value="false"/>
        </resource>
        <resource>
            <reference>
                <reference value="Media/ServiceRequestFeedback"/></reference>
            <exampleBoolean value="false"/>
        </resource>
        <resource>
            <reference>
                <reference value="StructureDefinition/BSeR-ReferralMessageBundle"/>
                <display value="BSeR Referral Message Bundle"/>
            </reference>
            <name value="BSeR Referral Message Bundle"/>
            <exampleBoolean value="false"/>
        </resource>
        <resource>
            <extension url="https://trifolia-fhir.lantanagroup.com/StructureDefinition/extension-ig-resource-file-path">
                <valueString value="bundle/bundle-bser-arthritis-referral-feedback-eve-everywoman.xml"/>
            </extension>
            <reference>
                <reference value="Bundle/bundle-bser-arthritis-referral-feedback-eve-everywoman"/>
                <display value="bundle-bser-arthritis-referral-feedback-eve-everywoman"/>
            </reference>
            <name value="bundle-bser-arthritis-referral-feedback-eve-everywoman"/>
            <exampleBoolean value="true"/>
        </resource>
        <resource>
            <extension url="https://trifolia-fhir.lantanagroup.com/StructureDefinition/extension-ig-resource-file-path">
                <valueString value="bundle/bundle-bser-arthritis-referral-everywoman.xml"/>
            </extension>
            <reference>
                <reference value="Bundle/bundle-bser-arthritis-referral-everywoman"/>
                <display value="bundle-bser-arthritis-referral-everywoman"/>
            </reference>
            <name value="bundle-bser-arthritis-referral-everywoman"/>
            <exampleBoolean value="true"/>
        </resource>
        <resource>
            <reference>
                <reference value="Media/BSeR-Organization"/></reference>
            <exampleBoolean value="false"/>
        </resource>
        <resource>
            <reference>
                <reference value="ValueSet/BSeR-TelcomCommunicationPreferencesVS"/>
                <display value="BSeR Telcom Communication Preferences VS"/>
            </reference>
            <name value="BSeR Telcom Communication Preferences VS"/>
            <exampleBoolean value="false"/>
        </resource>
        <resource>
            <reference>
                <reference value="Media/HarmonizedStateTransitions"/></reference>
            <exampleBoolean value="false"/>
        </resource>
        <resource>
            <reference>
                <reference value="CodeSystem/TaskBusinessStatusCS"/>
                <display value="Task Business Status Code System"/>
            </reference>
            <name value="Task Business Status Code System"/>
            <exampleBoolean value="false"/>
        </resource>
        <resource>
            <reference>
                <reference value="ValueSet/TaskBusinessStatusVS"/>
                <display value="Task Business Status VS"/>
            </reference>
            <name value="Task Business Status VS"/>
            <exampleBoolean value="false"/>
        </resource>
        <resource>
            <extension url="https://trifolia-fhir.lantanagroup.com/StructureDefinition/extension-ig-resource-file-path">
                <valueString value="observation/observation-body-height-baby-everybaby.xml"/>
            </extension>
            <reference>
                <reference value="Observation/observation-body-height-baby-everybaby"/>
                <display value="observation-body-height-baby-everybaby"/>
            </reference>
            <name value="observation-body-height-baby-everybaby"/>
            <exampleBoolean value="true"/>
        </resource>
        <resource>
            <extension url="https://trifolia-fhir.lantanagroup.com/StructureDefinition/extension-ig-resource-file-path">
                <valueString value="observation/observation-ParticipationFeedbackObservation-1-eve-everywoman.xml"/>
            </extension>
            <reference>
                <reference value="Observation/observation-ParticipationFeedbackObservation-1-eve-everywoman"/>
                <display value="observation-ParticipationFeedbackObservation-1-eve-everywoman"/>
            </reference>
            <name value="observation-ParticipationFeedbackObservation-1-eve-everywoman"/>
            <exampleBoolean value="true"/>
        </resource>
        <resource>
            <extension url="https://trifolia-fhir.lantanagroup.com/StructureDefinition/extension-ig-resource-file-path">
                <valueString value="observation/observation-ParticipationFeedbackObservation-2-eve-everywoman.xml"/>
            </extension>
            <reference>
                <reference value="Observation/observation-ParticipationFeedbackObservation-2-eve-everywoman"/>
                <display value="observation-ParticipationFeedbackObservation-2-eve-everywoman"/>
            </reference>
            <name value="observation-ParticipationFeedbackObservation-2-eve-everywoman"/>
            <exampleBoolean value="true"/>
        </resource>
        <resource>
            <reference>
                <reference value="Media/WorkflowSequence"/></reference>
            <exampleBoolean value="false"/>
        </resource>
        <resource>
            <extension url="https://trifolia-fhir.lantanagroup.com/StructureDefinition/extension-ig-resource-file-path">
                <valueString value="bundle/bundle-bser-diabetes-referral-feedback-eve-everywoman.xml"/>
            </extension>
            <reference>
                <reference value="Bundle/bundle-bser-diabetes-referral-feedback-eve-everywoman"/>
                <display value="bundle-bser-diabetes-referral-feedback-eve-everywoman"/>
            </reference>
            <name value="bundle-bser-diabetes-referral-feedback-eve-everywoman"/>
            <exampleBoolean value="true"/>
        </resource>
        <resource>
            <extension url="https://trifolia-fhir.lantanagroup.com/StructureDefinition/extension-ig-resource-file-path">
                <valueString value="practitionerrole/practitionerrole-bser-referral-recipient.xml"/>
            </extension>
            <reference>
                <reference value="PractitionerRole/practitionerrole-bser-referral-recipient"/>
                <display value="practitionerrole-bser-referral-recipient"/>
            </reference>
            <name value="practitionerrole-bser-referral-recipient"/>
            <exampleBoolean value="true"/>
        </resource>
        <resource>
            <extension url="https://trifolia-fhir.lantanagroup.com/StructureDefinition/extension-ig-resource-file-path">
                <valueString value="practitionerrole/practitionerrole-bser-referral-initiator.xml"/>
            </extension>
            <reference>
                <reference value="PractitionerRole/practitionerrole-bser-referral-initiator"/>
                <display value="practitionerrole-bser-referral-initiator"/>
            </reference>
            <name value="practitionerrole-bser-referral-initiator"/>
            <exampleBoolean value="true"/>
        </resource>
        <resource>
            <extension url="https://trifolia-fhir.lantanagroup.com/StructureDefinition/extension-ig-resource-file-path">
                <valueString value="bundle/bundle-bser-diabetes-referral-eve-everywoman.xml"/>
            </extension>
            <reference>
                <reference value="Bundle/bundle-bser-diabetes-referral-eve-everywoman"/>
                <display value="bundle-bser-diabetes-referral-eve-everywoman"/>
            </reference>
            <name value="bundle-bser-diabetes-referral-eve-everywoman"/>
            <exampleBoolean value="true"/>
        </resource>
        <resource>
            <extension url="https://trifolia-fhir.lantanagroup.com/StructureDefinition/extension-ig-resource-file-path">
                <valueString value="bundle/bundle-bser-tobacco-referral-eve-everywoman.xml"/>
            </extension>
            <reference>
                <reference value="Bundle/bundle-bser-tobacco-referral-eve-everywoman"/>
                <display value="bundle-bser-tobacco-referral-eve-everywoman"/>
            </reference>
            <name value="bundle-bser-tobacco-referral-eve-everywoman"/>
            <exampleBoolean value="true"/>
        </resource>
        <resource>
            <extension url="https://trifolia-fhir.lantanagroup.com/StructureDefinition/extension-ig-resource-file-path">
                <valueString value="observation/observation-BSeR-NutritionFeedbackObs-1-eve-everywoman.xml"/>
            </extension>
            <reference>
                <reference value="Observation/observation-BSeR-NutritionFeedbackObs-1-eve-everywoman"/>
                <display value="observation-BSeR-NutritionFeedbackObs-1-eve-everywoman"/>
            </reference>
            <name value="observation-BSeR-NutritionFeedbackObs-1-eve-everywoman"/>
            <exampleBoolean value="true"/>
        </resource>
        <resource>
            <extension url="https://trifolia-fhir.lantanagroup.com/StructureDefinition/extension-ig-resource-file-path">
                <valueString value="observation/observation-BSeR-NutritionFeedbackObs-2-eve-everywoman.xml"/>
            </extension>
            <reference>
                <reference value="Observation/observation-BSeR-NutritionFeedbackObs-2-eve-everywoman"/>
                <display value="observation-BSeR-NutritionFeedbackObs-2-eve-everywoman"/>
            </reference>
            <name value="observation-BSeR-NutritionFeedbackObs-2-eve-everywoman"/>
            <exampleBoolean value="true"/>
        </resource>
        <resource>
            <reference>
                <reference value="StructureDefinition/BSeR-TobaccoUseCessationFeedbackMedication"/>
                <display value="BSeR_TobaccoUseCessationFeedbackMedication"/>
            </reference>
            <name value="BSeR_TobaccoUseCessationFeedbackMedication"/>
            <exampleBoolean value="false"/>
        </resource>
        <resource>
            <extension url="https://trifolia-fhir.lantanagroup.com/StructureDefinition/extension-ig-resource-file-path">
                <valueString value="bundle/bundle-bser-tobacco-referral-feedback-eve-everywoman.xml"/>
            </extension>
            <reference>
                <reference value="Bundle/bundle-bser-tobacco-referral-feedback-eve-everywoman"/>
                <display value="bundle-bser-tobacco-referral-feedback-eve-everywoman"/>
            </reference>
            <name value="bundle-bser-tobacco-referral-feedback-eve-everywoman"/>
            <exampleBoolean value="true"/>
        </resource>
        <resource>
            <extension url="https://trifolia-fhir.lantanagroup.com/StructureDefinition/extension-ig-resource-file-path">
                <valueString value="observation/observation-BSeR-TelcomComm-eve-everywoman.xml"/>
            </extension>
            <reference>
                <reference value="Observation/observation-BSeR-TelcomComm-eve-everywoman"/>
                <display value="observation-BSeR-TelcomComm-eve-everywoman"/>
            </reference>
            <name value="observation-BSeR-TelcomComm-eve-everywoman"/>
            <exampleBoolean value="true"/>
        </resource>
        <resource>
            <extension url="https://trifolia-fhir.lantanagroup.com/StructureDefinition/extension-ig-resource-file-path">
                <valueString value="bundle/bundle-bser-nutrition-referral-feedback-eve-everywoman.xml"/>
            </extension>
            <reference>
                <reference value="Bundle/bundle-bser-nutrition-referral-feedback-eve-everywoman"/>
                <display value="bundle-bser-nutrition-referral-feedback-eve-everywoman"/>
            </reference>
            <name value="bundle-bser-nutrition-referral-feedback-eve-everywoman"/>
            <exampleBoolean value="true"/>
        </resource>
        <page>
            <extension url="https://trifolia-on-fhir.lantanagroup.com/StructureDefinition/extension-ig-page-auto-generate-toc">
                <valueBoolean value="true"/>
            </extension>
            <nameUrl value="toc.md"/>
            <title value="Table of Contents"/>
            <generation value="generated"/>
            <page>
                <nameReference>
                    <reference value="#7807"/>
                    <display value="Page content 7807"/>
                </nameReference>
                <title value="Introduction"/>
                <generation value="markdown"/>
            </page>
            <page>
                <nameReference>
                    <reference value="#8576"/>
                    <display value="Page content 8576"/>
                </nameReference>
                <title value="BSeR Project Team"/>
                <generation value="markdown"/>
            </page>
            <page>
                <nameReference>
                    <reference value="#7622"/>
                    <display value="Page content 7622"/>
                </nameReference>
                <title value="Acknowledgements"/>
                <generation value="markdown"/>
            </page>
            <page>
                <nameReference>
                    <reference value="#5728"/>
                    <display value="Page content 5728"/>
                </nameReference>
                <title value="Scope and Context"/>
                <generation value="markdown"/>
            </page>
            <page>
                <nameReference>
                    <reference value="#7237"/>
                    <display value="Page content 7237"/>
                </nameReference>
                <title value="Resource Profiles"/>
                <generation value="markdown"/>
                <page>
                    <nameReference>
                        <reference value="#9422"/>
                        <display value="Page content 9422"/>
                    </nameReference>
                    <title value="Referral Participant Resources"/>
                    <generation value="markdown"/>
                    <page>
                        <nameReference>
                            <reference value="#8739"/>
                            <display value="Page content 8739"/>
                        </nameReference>
                        <title value="Referral Service Request Initiator"/>
                        <generation value="markdown"/>
                    </page>
                    <page>
                        <nameReference>
                            <reference value="#6874"/>
                            <display value="Page content 6874"/>
                        </nameReference>
                        <title value="Referral Service Request Recipient"/>
                        <generation value="markdown"/>
                    </page>
                    <page>
                        <nameReference>
                            <reference value="#7452"/>
                            <display value="Page content 7452"/>
                        </nameReference>
                        <title value="Referral Service Request Patient"/>
                        <generation value="markdown"/>
                    </page>
                </page>
                <page>
                    <nameReference>
                        <reference value="#7634"/>
                        <display value="Page content 7634"/>
                    </nameReference>
                    <title value="Workflow Management Resources"/>
                    <generation value="markdown"/>
                    <page>
                        <nameReference>
                            <reference value="#7741"/>
                            <display value="Page content 7741"/>
                        </nameReference>
                        <title value="Trigger Events and State Transitions"/>
                        <generation value="markdown"/>
                    </page>
                    <page>
                        <nameReference>
                            <reference value="#7509"/>
                            <display value="Page content 7509"/>
                        </nameReference>
                        <title value="State Machine and Business Status"/>
                        <generation value="markdown"/>
                    </page>
                </page>
                <page>
                    <nameReference>
                        <reference value="#5503"/>
                        <display value="Page content 5503"/>
                    </nameReference>
                    <title value="Referral Service Request Resources"/>
                    <generation value="markdown"/>
                    <page>
                        <nameReference>
                            <reference value="#9491"/>
                            <display value="Page content 9491"/>
                        </nameReference>
                        <title value="Referral Service Request Clinical Statements"/>
                        <generation value="markdown"/>
                    </page>
                </page>
                <page>
                    <nameReference>
                        <reference value="#9107"/>
                        <display value="Page content 9107"/>
                    </nameReference>
                    <title value="Referral Service Request Feedback Resources"/>
                    <generation value="markdown"/>
                    <page>
                        <nameReference>
                            <reference value="#6902"/>
                            <display value="Page content 6902"/>
                        </nameReference>
                        <title value="Referral Service Request Feedback Clinical Statements"/>
                        <generation value="markdown"/>
                    </page>
                </page>
                <page>
                    <nameReference>
                        <reference value="#6532"/>
                        <display value="Page content 6532"/>
                    </nameReference>
                    <title value="Service Request and Referral Feedback Supporting Information Bundles"/>
                    <generation value="markdown"/>
                </page>
            </page>
            <page>
                <nameReference>
                    <reference value="#6441"/>
                    <display value="Page content 6441"/>
                </nameReference>
                <title value="Bi-directional Service e-Referral Transactions"/>
                <generation value="markdown"/>
            </page>
            <page>
                <nameReference>
                    <reference value="#9788"/>
                    <display value="Page content 9788"/>
                </nameReference>
                <title value="Transport Options"/>
                <generation value="markdown"/>
            </page>
            <page>
                <nameReference>
                    <reference value="#5115"/>
                    <display value="Page content 5115"/>
                </nameReference>
                <title value="Adaptation for Additional Referral Use Cases"/>
                <generation value="markdown"/>
            </page>
        </page>
    </definition>
</ImplementationGuide>