<?xml version="1.0" encoding="UTF-8"?>
<Bundle
    xmlns="http://hl7.org/fhir">
    <id value="b3e9d5abdc714dc6a8f0f41c1ea95a8a"/>
    <meta>
        <versionId value="1"/>
        <lastUpdated value="2022-09-18T14:20:06.980+00:00"/>
        <source value="#sUWtZjU508dpQEax"/>
        <profile value="http://hl7.org/fhir/us/bser/StructureDefinition/BSeR-ReferralMessageBundle"/>
    </meta>
    <type value="message"/>
    <entry>
        <fullUrl value="MessageHeader/b3e9d5abdc714dc6a8f0f41c1ea95a8a"/>
        <resource>
            <MessageHeader>
                <id value="b3e9d5abdc714dc6a8f0f41c1ea95a8a"/>
                <meta>
                    <versionId value="2"/>
                    <lastUpdated value="2022-09-18T22:45:31.000-05:00"/>
                    <profile value="http://hl7.org/fhir/us/bser/StructureDefinition/BSeR-ReferralMessageHeader"/>
                </meta>
                <eventCoding>
                    <system value="http://terminology.hl7.org/CodeSystem/v2-0003"/>
                    <code value="I12"/>
                    <display value="REF/RRI - Patient referral"/>
                </eventCoding>
                <destination>
                    <endpoint value="https://fhir-on-dev.ymca.net/fhirmessage/$process-message-bundle"/>
                    <receiver>
                        <reference value="PractitionerRole/practitionerrole-bser-referral-recipient"/>
                    </receiver>
                </destination>
                <sender>
                    <reference value="Practitioner/elO.MlslFHhkpOg3MRSLBaA3"/>
                    <display value="Md Research, MD"/>
                </sender>
                <source>
                    <name value="MUSC Health"/>
                    <software value="Epic 10.1"/>
                    <version value="R4"/>
                    <contact>
                        <system value="phone"/>
                        <value value="+1 (843) 792 9210"/>
                    </contact>
                    <endpoint value="https://epicrsh.musc.edu:8083"/>
                </source>
                <focus>
                    <reference value="Task/e30dIVk-XAECOZ1DIBdMtsIZnxC7X67U"/>
                </focus>
            </MessageHeader>
        </resource>
    </entry>
    <entry>
        <fullUrl value="Task/e30dIVk-XAECOZ1DIBdMtsIZnxC7X67U"/>
        <resource>
            <Task>
                <id value="e30dIVk-XAECOZ1DIBdMtsIZnxC7X67U"/>
                <meta>
                    <versionId value="4"/>
                    <lastUpdated value="2022-09-18T03:55:55.210643Z"/>
                    <profile value="http://hl7.org/fhir/us/bser/StructureDefinition/BSeR-ReferralTask"/>
                </meta>
                <identifier>
                    <type>
                        <coding>
                            <system value="http://terminology.hl7.org/CodeSystem/v2-0203"/>
                            <code value="PLAC"/>
                        </coding>
                    </type>
                    <value value="2805251"/>
                    <assigner>
                        <reference value="Organization/eajdq-Ru3FkWbOq8FVKWJCQ3"/>
                    </assigner>
                </identifier>
                <status value="requested"/>
                <businessStatus>
                    <coding>
                        <system value="http://hl7.org/fhir/us/bser/CodeSystem/TaskBusinessStatusCS"/>
                        <code value="7.0"/>
                        <display value="Service Request Fulfillment Completed"/>
                    </coding>
                </businessStatus>
                <intent value="order"/>
                <focus>
                    <reference value="ServiceRequest/eAyylKgAVWjPkLjGqE1aqxe0MySZZcQiCbaogkr55V6Q3"/>
                </focus>
                <authoredOn value="2022-09-17T06:37:36Z"/>
                <requester>
                    <reference value="Practitioner/elO.MlslFHhkpOg3MRSLBaA3"/>
                    <display value="Md Research, MD"/>
                </requester>
                <owner>
                    <reference value="Organization/eajdq-Ru3FkWbOq8FVKWJCQ3"/>
                </owner>
            </Task>
        </resource>
    </entry>
    <entry>
        <fullUrl value="ServiceRequest/eAyylKgAVWjPkLjGqE1aqxe0MySZZcQiCbaogkr55V6Q3"/>
        <resource>
            <ServiceRequest>
                <id value="eAyylKgAVWjPkLjGqE1aqxe0MySZZcQiCbaogkr55V6Q3"/>
                <meta>
                    <versionId value="10"/>
                    <lastUpdated value="2022-09-17T06:37:36Z"/>
                    <source value="#c7ae7d96-3d6c-40"/>
                    <profile value="http://hl7.org/fhir/us/bser/StructureDefinition/BSeR-ReferralServiceRequest"/>
                </meta>
                <identifier>
                    <system value="http://www.acme.org/practitioners"/>
                    <value value="23"/>
                </identifier>
                <status value="draft"/>
                <intent value="order"/>
                <code>
                    <coding>
                        <system value="urn:oid:1.2.840.114350.1.13.307.3.7.2.696580"/>
                        <code value="237"/>
                        <display value="AMB REFERRAL TO SOCIAL WORK"/>
                    </coding>
                    <text value="AMB REFERRAL TO SOCIAL WORK"/>
                </code>
                <orderDetail>
                    <coding>
                        <code value="diabetes-prevention"/>
                        <display value="Diabetes Prevention"/>
                    </coding>
                    <text value="Diabetes Prevention"/>
                </orderDetail>
                <subject>
                    <reference value="Patient/edIquIxnY2tpPXEYB0Xwr7QyqMDKW4NoQ4r9JTOnIzck3"/>
                    <display value="YMCA, Dppone"/>
                </subject>
                <authoredOn value="2022-09-09T18:37:38.670Z"/>
                <requester>
                    <reference value="Practitioner/elO.MlslFHhkpOg3MRSLBaA3"/>
                    <display value="Md Research, MD"/>
                </requester>
                <performer>
                    <reference value="Practitioner/elO.MlslFHhkpOg3MRSLBaA3"/>
                    <display value="Md Research, MD"/>
                </performer>
                <supportingInfo>
                    <reference value="Bundle/8sVxrZLHAppTdjhy5tlcAU9CQr"/>
                </supportingInfo>
            </ServiceRequest>
        </resource>
    </entry>
    <entry id="8sVxrZLHAppTdjhy5tlcAU9CQr"/>
</Bundle>