<?xml version="1.0" encoding="UTF-8"?>
<Bundle
    xmlns="http://hl7.org/fhir">
    <id value="bundle-bser-referral-feedback-document-bundle-eve-everywoman"/>
    <meta>
        <versionId value="7"/>
        <lastUpdated value="2023-04-13T10:55:47.216Z"/>
        <profile value="http://hl7.org/fhir/us/bser/StructureDefinition/BSeR-ReferralFeedbackDocumentBundle"/>
    </meta>
    <identifier>
        <system value="urn:ietf:rfc:3986"/>
        <value value="urn:uuid:2be4b4e4-6df1-4cb2-a947-c70fa0eda54e"/>
    </identifier>
    <type value="document"/>
    <timestamp value="2020-01-07T09:25:00Z"/>
    <entry>
        <fullUrl value="http://example.org/fhir/Composition/composition-bser-referral-feedback-arthritis-everywoman"/>
        <resource>
            <Composition>
                <id value="composition-bser-referral-feedback-arthritis-everywoman"/>
                <meta>
                    <versionId value="3"/>
                    <lastUpdated value="2023-04-13T05:47:44.055+00:00"/>
                    <source value="#SAUe61jarX1IqkiJ"/>
                    <profile value="http://hl7.org/fhir/us/bser/StructureDefinition/BSeR-ReferralFeedbackComposition"/>
                </meta>
                <status value="final"/>
                <type>
                    <coding>
                        <system value="http://loinc.org"/>
                        <code value="11488-4"/>
                        <display value="Consult note"/>
                    </coding>
                </type>
                <subject>
                    <reference value="Patient/patient-us-core-patient-eve-everywoman"/>
                    <display value="Eve Everywoman"/>
                </subject>
                <date value="2020-01-03T11:15:23Z"/>
                <author>
                    <reference value="PractitionerRole/practitionerrole-bser-referral-recipient"/>
                    <display value="Hailey Eight, MD"/>
                </author>
                <title value="Referral feedback"/>
                <section>
                    <title value="Referral Service Request Feedback Summary"/>
                    <code>
                        <coding>
                            <system value="http://hl7.org/fhir/us/bser/CodeSystem/bser"/>
                            <code value="RSRFS"/>
                            <display value="CompositionSectionReferralServiceRequestFeedbackSummary"/>
                        </coding>
                    </code>
                    <focus>
                        <reference value="ServiceRequest/servicerequest-BSeR-ReferralServiceRequest"/>
                    </focus>
                    <entry>
                        <reference value="Observation/observation-BSeR-ReferralActivityStatus-eve-everywoman"/>
                    </entry>
                </section>
                <section>
                    <title value="Arthritis Referral Feedback Supporting Information"/>
                    <code>
                        <coding>
                            <system value="http://hl7.org/fhir/us/bser/CodeSystem/bser"/>
                            <code value="ARFSI"/>
                            <display value="Arthritis Referral Feedback Supporting Information"/>
                        </coding>
                    </code>
                    <entry>
                        <reference value="Observation/observation-BSeR-ArthritisFeedbackObservation-1-eve-everywoman"/>
                    </entry>
                </section>
            </Composition>
        </resource>
    </entry>
    <entry>
        <fullUrl value="http://example.org/fhir/Observation/observation-BSeR-ArthritisFeedbackObservation-1-eve-everywoman"/>
        <resource>
            <Observation>
                <id value="observation-BSeR-ArthritisFeedbackObservation-1-eve-everywoman"/>
                <meta>
                    <versionId value="3"/>
                    <lastUpdated value="2023-03-31T04:46:33.577+00:00"/>
                    <source value="#pO0kvhrqvU8E7xY9"/>
                    <profile value="http://hl7.org/fhir/us/bser/StructureDefinition/BSeR-ArthritisFeedbackObservation"/>
                </meta>
                <status value="final"/>
                <code>
                    <coding>
                        <system value="http://snomed.info/sct"/>
                        <code value="406203001"/>
                        <display value="Endurance (observable entity)"/>
                    </coding>
                </code>
                <subject>
                    <reference value="Patient/patient-us-core-patient-eve-everywoman"/>
                    <display value="Eve Everywoman"/>
                </subject>
                <effectiveDateTime value="2019-01-18T22:33:22Z"/>
                <performer>
                    <reference value="PractitionerRole/practitionerrole-bser-referral-recipient"/>
                </performer>
                <valueCodeableConcept>
                    <coding>
                        <system value="http://snomed.info/sct"/>
                        <code value="268910001"/>
                        <display value="Patient's condition improved (finding)"/>
                    </coding>
                </valueCodeableConcept>
            </Observation>
        </resource>
    </entry>
    <entry>
        <fullUrl value="http://example.org/fhir/PractitionerRole/practitionerrole-bser-referral-recipient"/>
        <resource>
            <PractitionerRole>
                <id value="practitionerrole-bser-referral-recipient"/>
                <meta>
                    <versionId value="3"/>
                    <lastUpdated value="2023-03-31T04:46:51.931+00:00"/>
                    <source value="#fKpmbvxENjA50N93"/>
                    <profile value="http://hl7.org/fhir/us/bser/StructureDefinition/BSeR-ReferralRecipientPractitionerRole"/>
                </meta>
                <identifier>
                    <system value="http://hl7.org/fhir/sid/us-npi"/>
                    <value value="2222222222"/>
                </identifier>
                <practitioner>
                    <reference value="Practitioner/practitioner-bser-hailey-eight"/>
                    <display value="Hailey Eight, MD"/>
                </practitioner>
                <organization>
                    <reference value="Organization/organization-bser-organization-saint-luke"/>
                </organization>
                <code>
                    <coding>
                        <system value="http://nucc.org/provider-taxonomy"/>
                        <code value="261QP2300X"/>
                        <display value="Primary Care Clinic/Center"/>
                    </coding>
                </code>
                <specialty>
                    <coding>
                        <system value="http://snomed.info/sct"/>
                        <code value="419772000"/>
                        <display value="Family Practice"/>
                    </coding>
                </specialty>
                <telecom>
                    <system value="email"/>
                    <value value="hailey.eight@example.com"/>
                </telecom>
            </PractitionerRole>
        </resource>
    </entry>
    <entry>
        <fullUrl value="http://example.org/fhir/Observation/observation-BSeR-ReferralActivityStatus-eve-everywoman"/>
        <resource>
            <Observation>
                <id value="observation-BSeR-ReferralActivityStatus-eve-everywoman"/>
                <meta>
                    <versionId value="3"/>
                    <lastUpdated value="2023-03-31T04:46:33.803+00:00"/>
                    <source value="#KH1UGGSHAr2RLZRo"/>
                    <profile value="http://hl7.org/fhir/us/bser/StructureDefinition/BSeR-ReferralActivityStatus"/>
                </meta>
                <status value="final"/>
                <code>
                    <coding>
                        <system value="http://snomed.info/sct"/>
                        <code value="385641008"/>
                        <display value="Action status"/>
                    </coding>
                </code>
                <subject>
                    <reference value="Patient/patient-us-core-patient-eve-everywoman"/>
                    <display value="Eve Everywoman"/>
                </subject>
                <effectiveDateTime value="2019-01-17"/>
                <performer>
                    <reference value="PractitionerRole/practitionerrole-bser-referral-recipient"/>
                </performer>
                <valueString value="Referral accepted"/>
            </Observation>
        </resource>
    </entry>
    <entry>
        <fullUrl value="http://example.org/fhir/Patient/patient-us-core-patient-eve-everywoman"/>
        <resource>
            <Patient>
                <id value="patient-us-core-patient-eve-everywoman"/>
                <meta>
                    <versionId value="3"/>
                    <lastUpdated value="2023-03-31T04:46:51.933+00:00"/>
                    <source value="#TNq3kA1qG2CRftFd"/>
                    <profile value="http://hl7.org/fhir/us/core/StructureDefinition/us-core-patient"/>
                </meta>
                <text>
                    <status value="generated"/>
                    <div
                        xmlns="http://www.w3.org/1999/xhtml">
                        <div class="hapiHeaderText">Eve L 
                            <b>EVERYWOMAN </b>
                        </div>
                        <table class="hapiPropertyTable">
                            <tbody>
                                <tr>
                                    <td>Identifier</td>
                                    <td>1032702</td>
                                </tr>
                                <tr>
                                    <td>Address</td>
                                    <td>
                                        <span>5101 Peachtree St NE </span>
                                        <br/>
                                        <span>Atlanta </span>
                                        <span>GA </span>
                                        <span>US </span>
                                    </td>
                                </tr>
                                <tr>
                                    <td>Date of birth</td>
                                    <td>
                                        <span>24 November 1974</span>
                                    </td>
                                </tr>
                            </tbody>
                        </table>
                    </div>
                </text>
                <extension url="http://hl7.org/fhir/us/core/StructureDefinition/us-core-race">
                    <extension url="ombCategory">
                        <valueCoding>
                            <system value="urn:oid:2.16.840.1.113883.6.238"/>
                            <code value="2106-3"/>
                            <display value="White"/>
                        </valueCoding>
                    </extension>
                    <extension url="text">
                        <valueString value="White"/>
                    </extension>
                </extension>
                <extension url="http://hl7.org/fhir/us/core/StructureDefinition/us-core-ethnicity">
                    <extension url="ombCategory">
                        <valueCoding>
                            <system value="urn:oid:2.16.840.1.113883.6.238"/>
                            <code value="2186-5"/>
                            <display value="Not Hispanic or Latino"/>
                        </valueCoding>
                    </extension>
                    <extension url="text">
                        <valueString value="Not Hispanic or Latino"/>
                    </extension>
                </extension>
                <extension url="http://hl7.org/fhir/us/core/StructureDefinition/us-core-birthsex">
                    <valueCode value="F"/>
                </extension>
                <identifier>
                    <use value="usual"/>
                    <type>
                        <coding>
                            <system value="http://terminology.hl7.org/CodeSystem/v2-0203"/>
                            <code value="MR"/>
                            <display value="Medical Record Number"/>
                        </coding>
                    </type>
                    <system value="http://hospital.smarthealthit.org"/>
                    <value value="1032702"/>
                </identifier>
                <active value="true"/>
                <name>
                    <family value="Everywoman"/>
                    <given value="Eve"/>
                    <given value="L"/>
                </name>
                <telecom>
                    <system value="phone"/>
                    <value value="1-(404)555-1212"/>
                    <use value="home"/>
                </telecom>
                <telecom>
                    <system value="email"/>
                    <value value="eve.everywoman@example.com"/>
                </telecom>
                <gender value="female"/>
                <birthDate value="1974-11-24"/>
                <address>
                    <line value="5101 Peachtree St NE"/>
                    <city value="Atlanta"/>
                    <state value="GA"/>
                    <postalCode value="30302"/>
                    <country value="US"/>
                </address>
            </Patient>
        </resource>
    </entry>
    <entry>
        <fullUrl value="http://example.org/fhir/Organization/organization-bser-organization-saint-luke"/>
        <resource>
            <Organization>
                <id value="organization-bser-organization-saint-luke"/>
                <meta>
                    <versionId value="3"/>
                    <lastUpdated value="2023-03-31T04:46:51.929+00:00"/>
                    <source value="#kdzeqbNX0AdNEyTf"/>
                </meta>
                <identifier>
                    <system value="http://hl7.org/fhir/sid/us-npi"/>
                    <value value="1063494177"/>
                </identifier>
                <active value="true"/>
                <type>
                    <coding>
                        <system value="http://terminology.hl7.org/CodeSystem/organization-type"/>
                        <code value="prov"/>
                        <display value="Healthcare Provider"/>
                    </coding>
                </type>
                <name value="Saint Luke's Hospital of Kansas City"/>
                <telecom>
                    <system value="phone"/>
                    <value value="(816)932-2000"/>
                    <use value="work"/>
                </telecom>
                <telecom>
                    <system value="other"/>
                    <value value="http://www.saintlukeshealthsystem.org/locations/saint-lukes-hospital-kansas-city"/>
                    <use value="work"/>
                </telecom>
                <address>
                    <line value="4401 Wornall Rd,"/>
                    <city value="Amherst"/>
                    <state value="MA"/>
                    <postalCode value="64111"/>
                </address>
            </Organization>
        </resource>
    </entry>
    <entry>
        <fullUrl value="http://example.org/fhir/Practitioner/practitioner-bser-hailey-eight"/>
        <resource>
            <Practitioner>
                <id value="practitioner-bser-hailey-eight"/>
                <meta>
                    <versionId value="3"/>
                    <lastUpdated value="2023-03-31T04:46:51.931+00:00"/>
                    <source value="#XYgRlxww31HhZa5a"/>
                    <profile value="http://hl7.org/fhir/us/bser/StructureDefinition/BSeR-Practitioner"/>
                </meta>
                <identifier>
                    <system value="http://hl7.org/fhir/sid/us-npi"/>
                    <value value="9941339888"/>
                </identifier>
                <name>
                    <family value="Hailey"/>
                    <given value="Eight"/>
                    <suffix value="M.D."/>
                </name>
                <telecom>
                    <system value="email"/>
                    <value value="hailey.eight@example.com"/>
                </telecom>
                <address>
                    <line value="BMass Doctors"/>
                    <line value="2100 North Ave"/>
                    <city value="Burlington"/>
                    <state value="MA"/>
                    <postalCode value="02368"/>
                    <country value="US"/>
                </address>
            </Practitioner>
        </resource>
    </entry>
    <entry>
        <fullUrl value="ServiceRequest/servicerequest-BSeR-ReferralServiceRequest" />
        <resource>
            <ServiceRequest>
                <id value="servicerequest-BSeR-ReferralServiceRequest" />
                <meta>
                    <versionId value="3" />
                    <lastUpdated value="2023-03-31T04:47:04.215+00:00" />
                    <source value="#geEcyuymdeHKb4ph" />
                    <profile value="http://hl7.org/fhir/us/bser/StructureDefinition/BSeR-ReferralServiceRequest" />
                </meta>
                <text>
                    <status value="generated" />
                    <div xmlns="http://www.w3.org/1999/xhtml">
                        <p>
                            <b>Generated Narrative: ServiceRequest</b>
                            <a name="servicerequest-BSeR-ReferralServiceRequest" />
                        </p>
                        <div
                            style="display: inline-block; background-color: #d9e0e7; padding: 6px; margin: 4px; border: 1px solid #8da1b4; border-radius: 5px; line-height: 60%">
                            <p style="margin-bottom: 0px">Resource ServiceRequest "servicerequest-BSeR-ReferralServiceRequest" Version "3" Updated
                                "2023-03-31 04:47:04+0000" </p>
                            <p style="margin-bottom: 0px">Information Source: #geEcyuymdeHKb4ph!</p>
                            <p style="margin-bottom: 0px">Profile: <a href="StructureDefinition-BSeR-ReferralServiceRequest.html">BSeR Referral
                                Service Request</a>
                            </p>
                        </div>
                        <p>
                            <b>identifier</b>: Placer Identifier: 88888888, Filler Identifier: 99999999 </p>
                        <p>
                            <b>status</b>: active </p>
                        <p>
                            <b>intent</b>: order </p>
                        <p>
                            <b>code</b>: Patient referral <span style="background: LightGoldenRodYellow; margin: 4px; border: 1px solid khaki"> ( <a
                                href="https://browser.ihtsdotools.org/">SNOMED CT</a>#3457005) </span>
                        </p>
                        <p>
                            <b>subject</b>: <a href="Patient-patient-us-core-patient-eve-everywoman.html"
                                >Patient/patient-us-core-patient-eve-everywoman: Eve Everywoman</a> " EVERYWOMAN" </p>
                        <p>
                            <b>occurrence</b>: 2020-01-09 </p>
                        <p>
                            <b>authoredOn</b>: 2020-02-14 </p>
                        <p>
                            <b>requester</b>: <a href="PractitionerRole-practitionerrole-bser-referral-initiator.html"
                                >PractitionerRole/practitionerrole-bser-referral-initiator: Henry Seven, MD</a>
                        </p>
                        <p>
                            <b>performer</b>: <a href="PractitionerRole-practitionerrole-bser-referral-recipient.html"
                                >PractitionerRole/practitionerrole-bser-referral-recipient: Hailey Eight, MD</a>
                        </p>
                        <p>
                            <b>reasonCode</b>: Arthritis (disorder) <span
                                style="background: LightGoldenRodYellow; margin: 4px; border: 1px solid khaki"> ( <a
                                    href="https://browser.ihtsdotools.org/">SNOMED CT</a>#3723001) </span>
                        </p>
                        <p>
                            <b>insurance</b>: <a href="Coverage-coverage-BSeR-Coverage-eve-everywoman.html"
                                >Coverage/coverage-BSeR-Coverage-eve-everywoman</a>
                        </p>
                        <p>
                            <b>supportingInfo</b>: <a href="Bundle-bundle-bser-referral-request-document-bundle-eve-everywoman.html"
                                >Bundle/bundle-bser-referral-request-document-bundle-eve-everywoman</a>
                        </p>
                    </div>
                </text>
                <identifier>
                    <type>
                        <coding>
                            <system value="http://terminology.hl7.org/CodeSystem/v2-0203" />
                            <code value="PLAC" />
                        </coding>
                    </type>
                    <value value="88888888" />
                    <assigner>
                        <reference value="Organization/organization-bser-organization-saint-luke" />
                    </assigner>
                </identifier>
                <identifier>
                    <type>
                        <coding>
                            <system value="http://terminology.hl7.org/CodeSystem/v2-0203" />
                            <code value="FILL" />
                        </coding>
                    </type>
                    <value value="99999999" />
                    <assigner>
                        <reference value="Organization/organization-bser-organization-saint-luke" />
                    </assigner>
                </identifier>
                <status value="active" />
                <intent value="order" />
                <code>
                    <coding>
                        <system value="http://snomed.info/sct" />
                        <code value="3457005" />
                        <display value="Patient referral" />
                    </coding>
                </code>
                <subject>
                    <reference value="Patient/patient-us-core-patient-eve-everywoman" />
                    <display value="Eve Everywoman" />
                </subject>
                <occurrenceDateTime value="2020-01-09" />
                <authoredOn value="2020-02-14" />
                <requester>
                    <reference value="PractitionerRole/practitionerrole-bser-referral-initiator" />
                    <display value="Henry Seven, MD" />
                </requester>
                <performer>
                    <reference value="PractitionerRole/practitionerrole-bser-referral-recipient" />
                    <display value="Hailey Eight, MD" />
                </performer>
                <reasonCode>
                    <coding>
                        <system value="http://snomed.info/sct" />
                        <code value="3723001" />
                        <display value="Arthritis (disorder)" />
                    </coding>
                </reasonCode>
                <insurance>
                    <reference value="Coverage/coverage-BSeR-Coverage-eve-everywoman" />
                </insurance>
                <supportingInfo>
                    <reference value="Bundle/bundle-bser-referral-request-document-bundle-eve-everywoman" />
                </supportingInfo>
            </ServiceRequest>
        </resource>
    </entry>
</Bundle>