<?xml version="1.0" encoding="UTF-8"?>
<Bundle
    xmlns="http://hl7.org/fhir">
    <id value="bundle-bser-referral-request-document-bundle-eve-everywoman"/>
    <meta>
        <versionId value="4"/>
        <lastUpdated value="2023-04-13T10:57:40.119Z"/>
        <profile value="http://hl7.org/fhir/us/bser/StructureDefinition/BSeR-ReferralRequestDocumentBundle"/>
    </meta>
    <identifier>
        <system value="urn:ietf:rfc:3986"/>
        <value value="urn:uuid:2be4b4e4-6df1-4cb2-a947-c70fa0eda54c"/>
    </identifier>
    <type value="document"/>
    <timestamp value="2020-01-06T22:13:23Z"/>
    <entry>
        <fullUrl value="http://example.org/fhir/Composition/composition-bser-referral-request-arthritis-everywoman"/>
        <resource>
            <Composition>
                <id value="composition-bser-referral-request-arthritis-everywoman"/>
                <meta>
                    <versionId value="2"/>
                    <lastUpdated value="2023-04-13T05:27:36.275+00:00"/>
                    <source value="#UabNeSfKfNq7b6Gv"/>
                    <profile value="http://hl7.org/fhir/us/bser/StructureDefinition/BSeR-ReferralRequestComposition"/>
                </meta>
                <status value="final"/>
                <type>
                    <coding>
                        <system value="http://loinc.org"/>
                        <code value="57133-1"/>
                        <display value="Referral note"/>
                    </coding>
                </type>
                <subject>
                    <reference value="Patient/patient-us-core-patient-eve-everywoman"/>
                    <display value="Eve Everywoman"/>
                </subject>
                <date value="2020-01-02T22:13:23Z"/>
                <author>
                    <reference value="PractitionerRole/practitionerrole-bser-referral-initiator"/>
                    <display value="Henry Seven, MD"/>
                </author>
                <title value="Referral request"/>
                <section>
                    <title value="Arthritis Referral Request Supporting Information"/>
                    <code>
                        <coding>
                            <system value="http://hl7.org/fhir/us/bser/CodeSystem/bser"/>
                            <code value="ARSI"/>
                            <display value="Arthritis Referral Supporting Information"/>
                        </coding>
                    </code>
                    <entry>
                        <reference value="Observation/observation-blood-pressure-eve-everywoman-bser"/>
                    </entry>
                    <entry>
                        <reference value="Observation/observation-body-height-eve-everywoman"/>
                    </entry>
                    <entry>
                        <reference value="Observation/observation-bmi-eve-everywoman"/>
                    </entry>
                    <entry>
                        <reference value="Observation/observation-body-weight-eve-everywoman"/>
                    </entry>
                    <entry>
                        <reference value="MedicationStatement/medicationstatement-BSeR-eve-everywoman"/>
                    </entry>
                    <entry>
                        <reference value="AllergyIntolerance/allergyintolerance-us-core-allergyint-eve-everywoman"/>
                    </entry>
                </section>
            </Composition>
        </resource>
    </entry>
    <entry>
        <fullUrl value="http://example.org/fhir/Observation/observation-blood-pressure-eve-everywoman-bser"/>
        <resource>
            <Observation>
                <id value="observation-blood-pressure-eve-everywoman-bser"/>
                <meta>
                    <versionId value="2"/>
                    <lastUpdated value="2023-03-23T07:08:28.547+00:00"/>
                    <source value="#Z0sSBu2OZsgcUI4X"/>
                    <profile value="http://hl7.org/fhir/us/core/StructureDefinition/us-core-blood-pressure"/>
                </meta>
                <status value="final"/>
                <category>
                    <coding>
                        <system value="http://terminology.hl7.org/CodeSystem/observation-category"/>
                        <code value="vital-signs"/>
                        <display value="Vital Signs"/>
                    </coding>
                    <text value="Vital Signs"/>
                </category>
                <code>
                    <coding>
                        <system value="http://loinc.org"/>
                        <code value="85354-9"/>
                        <display value="Blood pressure panel with all children optional"/>
                    </coding>
                    <text value="Blood pressure systolic &amp; diastolic"/>
                </code>
                <subject>
                    <reference value="Patient/patient-us-core-patient-eve-everywoman"/>
                    <display value="Eve Everywoman"/>
                </subject>
                <effectiveDateTime value="2019-01-17"/>
                <performer>
                    <reference value="Practitioner/practitioner-bser-henry-seven"/>
                </performer>
                <component>
                    <code>
                        <coding>
                            <system value="http://loinc.org"/>
                            <code value="8480-6"/>
                            <display value="Systolic blood pressure"/>
                        </coding>
                    </code>
                    <valueQuantity>
                        <value value="107"/>
                        <unit value="mmHg"/>
                        <system value="http://unitsofmeasure.org"/>
                        <code value="mm[Hg]"/>
                    </valueQuantity>
                </component>
                <component>
                    <code>
                        <coding>
                            <system value="http://loinc.org"/>
                            <code value="8462-4"/>
                            <display value="Diastolic blood pressure"/>
                        </coding>
                    </code>
                    <valueQuantity>
                        <value value="60"/>
                        <unit value="mmHg"/>
                        <system value="http://unitsofmeasure.org"/>
                        <code value="mm[Hg]"/>
                    </valueQuantity>
                </component>
            </Observation>
        </resource>
    </entry>
    <entry>
        <fullUrl value="http://example.org/fhir/Observation/observation-body-height-eve-everywoman"/>
        <resource>
            <Observation>
                <id value="observation-body-height-eve-everywoman"/>
                <meta>
                    <versionId value="3"/>
                    <lastUpdated value="2023-03-23T07:09:15.380+00:00"/>
                    <source value="#o2InuSlQFGDh8zMV"/>
                    <profile value="http://hl7.org/fhir/us/core/StructureDefinition/us-core-body-height"/>
                </meta>
                <status value="final"/>
                <category>
                    <coding>
                        <system value="http://terminology.hl7.org/CodeSystem/observation-category"/>
                        <code value="vital-signs"/>
                        <display value="Vital Signs"/>
                    </coding>
                    <text value="Vital Signs"/>
                </category>
                <code>
                    <coding>
                        <system value="http://loinc.org"/>
                        <code value="8302-2"/>
                        <display value="Body height"/>
                    </coding>
                    <text value="Body height"/>
                </code>
                <subject>
                    <reference value="Patient/patient-us-core-patient-eve-everywoman"/>
                    <display value="Eve Everywoman"/>
                </subject>
                <effectiveDateTime value="2019-01-17"/>
                <performer>
                    <reference value="Practitioner/practitioner-bser-henry-seven"/>
                </performer>
                <valueQuantity>
                    <value value="21"/>
                    <unit value="in"/>
                    <system value="http://unitsofmeasure.org"/>
                    <code value="[in_i]"/>
                </valueQuantity>
            </Observation>
        </resource>
    </entry>
    <entry>
        <fullUrl value="http://example.org/fhir/PractitionerRole/practitionerrole-bser-referral-initiator"/>
        <resource>
            <PractitionerRole>
                <id value="practitionerrole-bser-referral-initiator"/>
                <meta>
                    <versionId value="3"/>
                    <lastUpdated value="2023-03-31T04:46:51.935+00:00"/>
                    <source value="#KWz9t9gDu5KkckaW"/>
                    <profile value="http://hl7.org/fhir/us/bser/StructureDefinition/BSeR-ReferralInitiatorPractitionerRole"/>
                </meta>
                <identifier>
                    <system value="http://hl7.org/fhir/sid/us-npi"/>
                    <value value="1111111111"/>
                </identifier>
                <practitioner>
                    <reference value="Practitioner/practitioner-bser-henry-seven"/>
                    <display value="Henry Seven, MD"/>
                </practitioner>
                <organization>
                    <reference value="Organization/organization-bser-organization-saint-luke"/>
                </organization>
                <code>
                    <coding>
                        <system value="http://nucc.org/provider-taxonomy"/>
                        <code value="261QP2300X"/>
                        <display value="Primary Care Clinic/Center"/>
                    </coding>
                </code>
                <specialty>
                    <coding>
                        <system value="http://snomed.info/sct"/>
                        <code value="419772000"/>
                        <display value="Family Practice"/>
                    </coding>
                </specialty>
                <telecom>
                    <system value="email"/>
                    <value value="henry.seven@example.com"/>
                </telecom>
            </PractitionerRole>
        </resource>
    </entry>
    <entry>
        <fullUrl value="http://example.org/fhir/Observation/observation-bmi-eve-everywoman"/>
        <resource>
            <Observation>
                <id value="observation-bmi-eve-everywoman"/>
                <meta>
                    <versionId value="3"/>
                    <lastUpdated value="2023-03-23T07:08:38.879+00:00"/>
                    <source value="#fgoWJZySAKpgvC8q"/>
                    <profile value="http://hl7.org/fhir/us/core/StructureDefinition/us-core-bmi"/>
                </meta>
                <status value="final"/>
                <category>
                    <coding>
                        <system value="http://terminology.hl7.org/CodeSystem/observation-category"/>
                        <code value="vital-signs"/>
                        <display value="Vital Signs"/>
                    </coding>
                    <text value="Vital Signs"/>
                </category>
                <code>
                    <coding>
                        <system value="http://loinc.org"/>
                        <code value="39156-5"/>
                        <display value="Body mass index (BMI) [Ratio]"/>
                    </coding>
                    <text value="BMI"/>
                </code>
                <subject>
                    <reference value="Patient/patient-us-core-patient-eve-everywoman"/>
                    <display value="Eve Everywoman"/>
                </subject>
                <effectiveDateTime value="2019-01-17"/>
                <performer>
                    <reference value="Practitioner/practitioner-bser-henry-seven"/>
                </performer>
                <valueQuantity>
                    <value value="16.2"/>
                    <unit value="kg/m2"/>
                    <system value="http://unitsofmeasure.org"/>
                    <code value="kg/m2"/>
                </valueQuantity>
            </Observation>
        </resource>
    </entry>
    <entry>
        <fullUrl value="http://example.org/fhir/MedicationStatement/medicationstatement-BSeR-eve-everywoman"/>
        <resource>
            <MedicationStatement>
                <id value="medicationstatement-BSeR-eve-everywoman"/>
                <meta>
                    <versionId value="3"/>
                    <lastUpdated value="2023-03-31T04:46:33.315+00:00"/>
                    <source value="#NPKNmapU7nw7QyhC"/>
                    <profile value="http://hl7.org/fhir/us/bser/StructureDefinition/BSeR-MedicationStatement"/>
                </meta>
                <status value="active"/>
                <medicationCodeableConcept>
                    <coding>
                        <system value="http://snomed.info/sct"/>
                        <code value="27658006"/>
                        <display value="Amoxicillin-containing product"/>
                    </coding>
                </medicationCodeableConcept>
                <subject>
                    <reference value="Patient/patient-us-core-patient-eve-everywoman"/>
                    <display value="Eve Everywoman"/>
                </subject>
                <effectiveDateTime value="2019-01-17"/>
                <dateAsserted value="2019-01-17"/>
                <dosage>
                    <timing>
                        <repeat>
                            <frequency value="3"/>
                            <period value="1"/>
                            <periodUnit value="d"/>
                        </repeat>
                    </timing>
                    <asNeededBoolean value="false"/>
                    <route>
                        <coding>
                            <system value="http://snomed.info/sct"/>
                            <code value="260548002"/>
                            <display value="Oral"/>
                        </coding>
                    </route>
                    <doseAndRate>
                        <type>
                            <coding>
                                <system value="http://terminology.hl7.org/CodeSystem/dose-rate-type"/>
                                <code value="ordered"/>
                                <display value="Ordered"/>
                            </coding>
                        </type>
                        <doseQuantity>
                            <value value="1"/>
                            <unit value="TAB"/>
                            <system value="http://terminology.hl7.org/CodeSystem/v3-orderableDrugForm"/>
                            <code value="TAB"/>
                        </doseQuantity>
                    </doseAndRate>
                </dosage>
            </MedicationStatement>
        </resource>
    </entry>
    <entry>
        <fullUrl value="http://example.org/fhir/Observation/observation-body-weight-eve-everywoman"/>
        <resource>
            <Observation>
                <id value="observation-body-weight-eve-everywoman"/>
                <meta>
                    <versionId value="3"/>
                    <lastUpdated value="2023-03-23T07:09:27.314+00:00"/>
                    <source value="#RRamooNKXxoD5ilQ"/>
                    <profile value="http://hl7.org/fhir/us/core/StructureDefinition/us-core-body-weight"/>
                </meta>
                <status value="final"/>
                <category>
                    <coding>
                        <system value="http://terminology.hl7.org/CodeSystem/observation-category"/>
                        <code value="vital-signs"/>
                        <display value="Vital Signs"/>
                    </coding>
                    <text value="Vital Signs"/>
                </category>
                <code>
                    <coding>
                        <system value="http://loinc.org"/>
                        <code value="29463-7"/>
                        <display value="Body weight"/>
                    </coding>
                    <text value="Body weight"/>
                </code>
                <subject>
                    <reference value="Patient/patient-us-core-patient-eve-everywoman"/>
                    <display value="Eve Everywoman"/>
                </subject>
                <effectiveDateTime value="2019-01-17"/>
                <performer>
                    <reference value="Practitioner/practitioner-bser-henry-seven"/>
                </performer>
                <valueQuantity>
                    <value value="65"/>
                    <unit value="kg"/>
                    <system value="http://unitsofmeasure.org"/>
                    <code value="kg"/>
                </valueQuantity>
            </Observation>
        </resource>
    </entry>
    <entry>
        <fullUrl value="http://example.org/fhir/Patient/patient-us-core-patient-eve-everywoman"/>
        <resource>
            <Patient>
                <id value="patient-us-core-patient-eve-everywoman"/>
                <meta>
                    <versionId value="3"/>
                    <lastUpdated value="2023-03-31T04:46:51.933+00:00"/>
                    <source value="#TNq3kA1qG2CRftFd"/>
                    <profile value="http://hl7.org/fhir/us/core/StructureDefinition/us-core-patient"/>
                </meta>
                <text>
                    <status value="generated"/>
                    <div
                        xmlns="http://www.w3.org/1999/xhtml">
                        <div class="hapiHeaderText">Eve L 
                            <b>EVERYWOMAN </b>
                        </div>
                        <table class="hapiPropertyTable">
                            <tbody>
                                <tr>
                                    <td>Identifier</td>
                                    <td>1032702</td>
                                </tr>
                                <tr>
                                    <td>Address</td>
                                    <td>
                                        <span>5101 Peachtree St NE </span>
                                        <br/>
                                        <span>Atlanta </span>
                                        <span>GA </span>
                                        <span>US </span>
                                    </td>
                                </tr>
                                <tr>
                                    <td>Date of birth</td>
                                    <td>
                                        <span>24 November 1974</span>
                                    </td>
                                </tr>
                            </tbody>
                        </table>
                    </div>
                </text>
                <extension url="http://hl7.org/fhir/us/core/StructureDefinition/us-core-race">
                    <extension url="ombCategory">
                        <valueCoding>
                            <system value="urn:oid:2.16.840.1.113883.6.238"/>
                            <code value="2106-3"/>
                            <display value="White"/>
                        </valueCoding>
                    </extension>
                    <extension url="text">
                        <valueString value="White"/>
                    </extension>
                </extension>
                <extension url="http://hl7.org/fhir/us/core/StructureDefinition/us-core-ethnicity">
                    <extension url="ombCategory">
                        <valueCoding>
                            <system value="urn:oid:2.16.840.1.113883.6.238"/>
                            <code value="2186-5"/>
                            <display value="Not Hispanic or Latino"/>
                        </valueCoding>
                    </extension>
                    <extension url="text">
                        <valueString value="Not Hispanic or Latino"/>
                    </extension>
                </extension>
                <extension url="http://hl7.org/fhir/us/core/StructureDefinition/us-core-birthsex">
                    <valueCode value="F"/>
                </extension>
                <identifier>
                    <use value="usual"/>
                    <type>
                        <coding>
                            <system value="http://terminology.hl7.org/CodeSystem/v2-0203"/>
                            <code value="MR"/>
                            <display value="Medical Record Number"/>
                        </coding>
                    </type>
                    <system value="http://hospital.smarthealthit.org"/>
                    <value value="1032702"/>
                </identifier>
                <active value="true"/>
                <name>
                    <family value="Everywoman"/>
                    <given value="Eve"/>
                    <given value="L"/>
                </name>
                <telecom>
                    <system value="phone"/>
                    <value value="1-(404)555-1212"/>
                    <use value="home"/>
                </telecom>
                <telecom>
                    <system value="email"/>
                    <value value="eve.everywoman@example.com"/>
                </telecom>
                <gender value="female"/>
                <birthDate value="1974-11-24"/>
                <address>
                    <line value="5101 Peachtree St NE"/>
                    <city value="Atlanta"/>
                    <state value="GA"/>
                    <postalCode value="30302"/>
                    <country value="US"/>
                </address>
            </Patient>
        </resource>
    </entry>
    <entry>
        <fullUrl value="http://example.org/fhir/AllergyIntolerance/allergyintolerance-us-core-allergyint-eve-everywoman"/>
        <resource>
            <AllergyIntolerance>
                <id value="allergyintolerance-us-core-allergyint-eve-everywoman"/>
                <meta>
                    <versionId value="3"/>
                    <lastUpdated value="2023-03-31T04:46:06.292+00:00"/>
                    <source value="#yIKSw3EBfpjnVgt3"/>
                    <profile value="http://hl7.org/fhir/us/core/StructureDefinition/us-core-allergyintolerance"/>
                </meta>
                <clinicalStatus>
                    <coding>
                        <system value="http://terminology.hl7.org/CodeSystem/allergyintolerance-clinical"/>
                        <code value="active"/>
                    </coding>
                </clinicalStatus>
                <verificationStatus>
                    <coding>
                        <system value="http://terminology.hl7.org/CodeSystem/allergyintolerance-verification"/>
                        <code value="confirmed"/>
                    </coding>
                </verificationStatus>
                <category value="medication"/>
                <criticality value="high"/>
                <code>
                    <coding>
                        <system value="http://snomed.info/sct"/>
                        <code value="387406002"/>
                        <display value="Sulfonamide (substance)"/>
                    </coding>
                    <text value="sulfonamide antibacterial"/>
                </code>
                <patient>
                    <reference value="Patient/patient-us-core-patient-eve-everywoman"/>
                    <display value="Eve Everywoman"/>
                </patient>
                <reaction>
                    <manifestation>
                        <coding>
                            <system value="http://snomed.info/sct"/>
                            <code value="271807003"/>
                            <display value="skin rash"/>
                        </coding>
                        <text value="skin rash"/>
                    </manifestation>
                    <severity value="mild"/>
                </reaction>
            </AllergyIntolerance>
        </resource>
    </entry>
    <entry>
        <fullUrl value="http://example.org/fhir/Practitioner/practitioner-bser-henry-seven"/>
        <resource>
            <Practitioner>
                <id value="practitioner-bser-henry-seven"/>
                <meta>
                    <versionId value="3"/>
                    <lastUpdated value="2023-03-31T04:46:51.931+00:00"/>
                    <source value="#tIcyDmxKoGUPGfQO"/>
                    <profile value="http://hl7.org/fhir/us/bser/StructureDefinition/BSeR-Practitioner"/>
                </meta>
                <identifier>
                    <system value="http://hl7.org/fhir/sid/us-npi"/>
                    <value value="9941339108"/>
                </identifier>
                <name>
                    <family value="Henry"/>
                    <given value="Seven"/>
                    <suffix value="M.D."/>
                </name>
                <telecom>
                    <system value="email"/>
                    <value value="henry.seven@example.com"/>
                </telecom>
                <address>
                    <line value="BMass Doctors"/>
                    <line value="2100 North Ave"/>
                    <city value="Burlington"/>
                    <state value="MA"/>
                    <postalCode value="02368"/>
                    <country value="US"/>
                </address>
            </Practitioner>
        </resource>
    </entry>
    <entry>
        <fullUrl value="http://example.org/fhir/Organization/organization-bser-organization-saint-luke"/>
        <resource>
            <Organization>
                <id value="organization-bser-organization-saint-luke"/>
                <meta>
                    <versionId value="3"/>
                    <lastUpdated value="2023-03-31T04:46:51.929+00:00"/>
                    <source value="#kdzeqbNX0AdNEyTf"/>
                </meta>
                <identifier>
                    <system value="http://hl7.org/fhir/sid/us-npi"/>
                    <value value="1063494177"/>
                </identifier>
                <active value="true"/>
                <type>
                    <coding>
                        <system value="http://terminology.hl7.org/CodeSystem/organization-type"/>
                        <code value="prov"/>
                        <display value="Healthcare Provider"/>
                    </coding>
                </type>
                <name value="Saint Luke's Hospital of Kansas City"/>
                <telecom>
                    <system value="phone"/>
                    <value value="(816)932-2000"/>
                    <use value="work"/>
                </telecom>
                <telecom>
                    <system value="other"/>
                    <value value="http://www.saintlukeshealthsystem.org/locations/saint-lukes-hospital-kansas-city"/>
                    <use value="work"/>
                </telecom>
                <address>
                    <line value="4401 Wornall Rd,"/>
                    <city value="Amherst"/>
                    <state value="MA"/>
                    <postalCode value="64111"/>
                </address>
            </Organization>
        </resource>
    </entry>
</Bundle>