<?xml version="1.0" encoding="UTF-8"?>
<Bundle
    xmlns="http://hl7.org/fhir">
    <id value="bundle-bser-referral-message-bundle-eve-everywoman"/>
    <meta>
        <versionId value="5"/>
        <lastUpdated value="2023-05-05T19:38:05.262+00:00"/>
        <source value="#WK3Kuf15fA3XjVPp"/>
        <profile value="http://hl7.org/fhir/us/bser/StructureDefinition/BSeR-ReferralMessageBundle"/>
    </meta>
    <type value="message"/>
    <entry>
        <fullUrl value="MessageHeader/messageheader-BSeR-ReferralMessageHeader"/>
        <resource>
            <MessageHeader>
                <id value="messageheader-BSeR-ReferralMessageHeader"/>
                <meta>
                    <versionId value="3"/>
                    <lastUpdated value="2023-03-31T04:46:33.319+00:00"/>
                    <source value="#lBNtKfbea7oSBukP"/>
                    <profile value="http://hl7.org/fhir/us/bser/StructureDefinition/BSeR-ReferralMessageHeader"/>
                </meta>
                <text>
                    <status value="generated"/>
                    <div
                        xmlns="http://www.w3.org/1999/xhtml">
                        <p>
                            <b>Generated Narrative: MessageHeader</b>
                            <a name="messageheader-BSeR-ReferralMessageHeader"/>
                        </p>
                        <div style="display: inline-block; background-color: #d9e0e7; padding: 6px; margin: 4px; border: 1px solid #8da1b4; border-radius: 5px; line-height: 60%">
                            <p style="margin-bottom: 0px">Resource MessageHeader "messageheader-BSeR-ReferralMessageHeader" Version "3" Updated "2023-03-31 04:46:33+0000" </p>
                            <p style="margin-bottom: 0px">Information Source: #lBNtKfbea7oSBukP!</p>
                            <p style="margin-bottom: 0px">Profile: 
                                <a href="StructureDefinition-BSeR-ReferralMessageHeader.html">BSeR Referral Message Header</a>
                            </p>
                        </div>
                        <p>
                            <b>event</b>: REF/RRI - Patient referral (Details: http://terminology.hl7.org/CodeSystem/v2-0003 code I12 = 'REF/RRI - Patient referral', stated as 'REF/RRI - Patient referral')
                        </p>
                        <h3>Destinations</h3>
                        <table class="grid">
                            <tr>
                                <td>-</td>
                                <td>
                                    <b>Endpoint</b>
                                </td>
                                <td>
                                    <b>Receiver</b>
                                </td>
                            </tr>
                            <tr>
                                <td>*</td>
                                <td>
                                    <a href="http://www.saintlukeshealthsystem.org/fhir/endpoint">http://www.saintlukeshealthsystem.org/fhir/endpoint</a>
                                </td>
                                <td>
                                    <a href="PractitionerRole-practitionerrole-bser-referral-recipient.html">PractitionerRole/practitionerrole-bser-referral-recipient</a>
                                </td>
                            </tr>
                        </table>
                        <p>
                            <b>sender</b>: 
                            <a href="PractitionerRole-practitionerrole-bser-referral-initiator.html">PractitionerRole/practitionerrole-bser-referral-initiator</a>
                        </p>
                        <h3>Sources</h3>
                        <table class="grid">
                            <tr>
                                <td>-</td>
                                <td>
                                    <b>Name</b>
                                </td>
                                <td>
                                    <b>Software</b>
                                </td>
                                <td>
                                    <b>Version</b>
                                </td>
                                <td>
                                    <b>Contact</b>
                                </td>
                                <td>
                                    <b>Endpoint</b>
                                </td>
                            </tr>
                            <tr>
                                <td>*</td>
                                <td>Acme Central Patient Registry</td>
                                <td>FooBar Patient Manager</td>
                                <td>3.1.45.AABB</td>
                                <td>
                                    <a href="tel:+1(555)1234567">+1 (555) 123 4567</a>
                                </td>
                                <td>
                                    <a href="http://www.saintlukeshealthsystem.org/fhir">http://www.saintlukeshealthsystem.org/fhir</a>
                                </td>
                            </tr>
                        </table>
                        <p>
                            <b>reason</b>: REF/RRI - Patient referral 
                            <span style="background: LightGoldenRodYellow; margin: 4px; border: 1px solid khaki"> (
                                <a href="http://terminology.hl7.org/3.1.0/CodeSystem-v2-0003.html">eventType</a>#I12)
                            </span>
                        </p>
                        <p>
                            <b>focus</b>: 
                            <a href="Task-task-BSeR-ReferralTask.html">Task/task-BSeR-ReferralTask</a>
                        </p>
                    </div>
                </text>
                <eventCoding>
                    <system value="http://terminology.hl7.org/CodeSystem/v2-0003"/>
                    <code value="I12"/>
                    <display value="REF/RRI - Patient referral"/>
                </eventCoding>
                <destination>
                    <endpoint value="http://www.saintlukeshealthsystem.org/fhir/endpoint"/>
                    <receiver>
                        <reference value="PractitionerRole/practitionerrole-bser-referral-recipient"/>
                    </receiver>
                </destination>
                <sender>
                    <reference value="PractitionerRole/practitionerrole-bser-referral-initiator"/>
                </sender>
                <source>
                    <name value="Acme Central Patient Registry"/>
                    <software value="FooBar Patient Manager"/>
                    <version value="3.1.45.AABB"/>
                    <contact>
                        <system value="phone"/>
                        <value value="+1 (555) 123 4567"/>
                    </contact>
                    <endpoint value="http://www.saintlukeshealthsystem.org/fhir"/>
                </source>
                <reason>
                    <coding>
                        <system value="http://terminology.hl7.org/CodeSystem/v2-0003"/>
                        <code value="I12"/>
                        <display value="REF/RRI - Patient referral"/>
                    </coding>
                </reason>
                <focus>
                    <reference value="Task/task-BSeR-ReferralTask"/>
                </focus>
            </MessageHeader>
        </resource>
    </entry>
    <entry>
        <fullUrl value="ServiceRequest/servicerequest-BSeR-ReferralServiceRequest"/>
        <resource>
            <ServiceRequest>
                <id value="servicerequest-BSeR-ReferralServiceRequest"/>
                <meta>
                    <versionId value="3"/>
                    <lastUpdated value="2023-03-31T04:47:04.215+00:00"/>
                    <source value="#geEcyuymdeHKb4ph"/>
                    <profile value="http://hl7.org/fhir/us/bser/StructureDefinition/BSeR-ReferralServiceRequest"/>
                </meta>
                <text>
                    <status value="generated"/>
                    <div
                        xmlns="http://www.w3.org/1999/xhtml">
                        <p>
                            <b>Generated Narrative: ServiceRequest</b>
                            <a name="servicerequest-BSeR-ReferralServiceRequest"/>
                        </p>
                        <div style="display: inline-block; background-color: #d9e0e7; padding: 6px; margin: 4px; border: 1px solid #8da1b4; border-radius: 5px; line-height: 60%">
                            <p style="margin-bottom: 0px">Resource ServiceRequest "servicerequest-BSeR-ReferralServiceRequest" Version "3" Updated "2023-03-31 04:47:04+0000" </p>
                            <p style="margin-bottom: 0px">Information Source: #geEcyuymdeHKb4ph!</p>
                            <p style="margin-bottom: 0px">Profile: 
                                <a href="StructureDefinition-BSeR-ReferralServiceRequest.html">BSeR Referral Service Request</a>
                            </p>
                        </div>
                        <p>
                            <b>identifier</b>: Placer Identifier: 88888888, Filler Identifier: 99999999
                        </p>
                        <p>
                            <b>status</b>: active
                        </p>
                        <p>
                            <b>intent</b>: order
                        </p>
                        <p>
                            <b>code</b>: Patient referral 
                            <span style="background: LightGoldenRodYellow; margin: 4px; border: 1px solid khaki"> (
                                <a href="https://browser.ihtsdotools.org/">SNOMED CT</a>#3457005)
                            </span>
                        </p>
                        <p>
                            <b>subject</b>: 
                            <a href="Patient-patient-us-core-patient-eve-everywoman.html">Patient/patient-us-core-patient-eve-everywoman: Eve Everywoman</a> " EVERYWOMAN"
                        </p>
                        <p>
                            <b>occurrence</b>: 2020-01-09
                        </p>
                        <p>
                            <b>authoredOn</b>: 2020-02-14
                        </p>
                        <p>
                            <b>requester</b>: 
                            <a href="PractitionerRole-practitionerrole-bser-referral-initiator.html">PractitionerRole/practitionerrole-bser-referral-initiator: Henry Seven, MD</a>
                        </p>
                        <p>
                            <b>performer</b>: 
                            <a href="PractitionerRole-practitionerrole-bser-referral-recipient.html">PractitionerRole/practitionerrole-bser-referral-recipient: Hailey Eight, MD</a>
                        </p>
                        <p>
                            <b>reasonCode</b>: Arthritis (disorder) 
                            <span style="background: LightGoldenRodYellow; margin: 4px; border: 1px solid khaki"> (
                                <a href="https://browser.ihtsdotools.org/">SNOMED CT</a>#3723001)
                            </span>
                        </p>
                        <p>
                            <b>insurance</b>: 
                            <a href="Coverage-coverage-BSeR-Coverage-eve-everywoman.html">Coverage/coverage-BSeR-Coverage-eve-everywoman</a>
                        </p>
                        <p>
                            <b>supportingInfo</b>: 
                            <a href="Bundle-bundle-bser-referral-request-document-bundle-eve-everywoman.html">Bundle/bundle-bser-referral-request-document-bundle-eve-everywoman</a>
                        </p>
                    </div>
                </text>
                <identifier>
                    <type>
                        <coding>
                            <system value="http://terminology.hl7.org/CodeSystem/v2-0203"/>
                            <code value="PLAC"/>
                        </coding>
                    </type>
                    <value value="88888888"/>
                    <assigner>
                        <reference value="Organization/organization-bser-organization-saint-luke"/>
                    </assigner>
                </identifier>
                <identifier>
                    <type>
                        <coding>
                            <system value="http://terminology.hl7.org/CodeSystem/v2-0203"/>
                            <code value="FILL"/>
                        </coding>
                    </type>
                    <value value="99999999"/>
                    <assigner>
                        <reference value="Organization/organization-bser-organization-saint-luke"/>
                    </assigner>
                </identifier>
                <status value="active"/>
                <intent value="order"/>
                <code>
                    <coding>
                        <system value="http://snomed.info/sct"/>
                        <code value="3457005"/>
                        <display value="Patient referral"/>
                    </coding>
                </code>
                <subject>
                    <reference value="Patient/patient-us-core-patient-eve-everywoman"/>
                    <display value="Eve Everywoman"/>
                </subject>
                <occurrenceDateTime value="2020-01-09"/>
                <authoredOn value="2020-02-14"/>
                <requester>
                    <reference value="PractitionerRole/practitionerrole-bser-referral-initiator"/>
                    <display value="Henry Seven, MD"/>
                </requester>
                <performer>
                    <reference value="PractitionerRole/practitionerrole-bser-referral-recipient"/>
                    <display value="Hailey Eight, MD"/>
                </performer>
                <reasonCode>
                    <coding>
                        <system value="http://snomed.info/sct"/>
                        <code value="3723001"/>
                        <display value="Arthritis (disorder)"/>
                    </coding>
                </reasonCode>
                <insurance>
                    <reference value="Coverage/coverage-BSeR-Coverage-eve-everywoman"/>
                </insurance>
                <supportingInfo>
                    <reference value="Bundle/bundle-bser-referral-request-document-bundle-eve-everywoman"/>
                </supportingInfo>
            </ServiceRequest>
        </resource>
    </entry>
    <entry>
        <fullUrl value="Task/task-BSeR-ReferralTask"/>
        <resource>
            <Task>
                <id value="task-BSeR-ReferralTask"/>
                <meta>
                    <versionId value="3"/>
                    <lastUpdated value="2023-03-31T04:47:04.203+00:00"/>
                    <source value="#I9By9Gn4GPBQ3o0S"/>
                    <profile value="http://hl7.org/fhir/us/bser/StructureDefinition/BSeR-ReferralTask"/>
                </meta>
                <text>
                    <status value="generated"/>
                    <div
                        xmlns="http://www.w3.org/1999/xhtml">
                        <p>
                            <b>Generated Narrative: Task</b>
                            <a name="task-BSeR-ReferralTask"/>
                        </p>
                        <div style="display: inline-block; background-color: #d9e0e7; padding: 6px; margin: 4px; border: 1px solid #8da1b4; border-radius: 5px; line-height: 60%">
                            <p style="margin-bottom: 0px">Resource Task "task-BSeR-ReferralTask" Version "3" Updated "2023-03-31 04:47:04+0000" </p>
                            <p style="margin-bottom: 0px">Information Source: #I9By9Gn4GPBQ3o0S!</p>
                            <p style="margin-bottom: 0px">Profile: 
                                <a href="StructureDefinition-BSeR-ReferralTask.html">BSeR Referral Task</a>
                            </p>
                        </div>
                        <p>
                            <b>identifier</b>: Placer Identifier: 66666666, Filler Identifier: 77777777
                        </p>
                        <p>
                            <b>status</b>: requested
                        </p>
                        <p>
                            <b>businessStatus</b>: Service Request Fulfillment Completed 
                            <span style="background: LightGoldenRodYellow; margin: 4px; border: 1px solid khaki"> (
                                <a href="CodeSystem-TaskBusinessStatusCS.html">Task Business Status Code System</a>#7.0)
                            </span>
                        </p>
                        <p>
                            <b>intent</b>: order
                        </p>
                        <p>
                            <b>focus</b>: 
                            <a href="ServiceRequest-servicerequest-BSeR-ReferralServiceRequest.html">ServiceRequest/servicerequest-BSeR-ReferralServiceRequest</a>
                        </p>
                        <p>
                            <b>authoredOn</b>: 2020-01-15 14:43:32-0400
                        </p>
                        <p>
                            <b>requester</b>: 
                            <a href="PractitionerRole-practitionerrole-bser-referral-initiator.html">PractitionerRole/practitionerrole-bser-referral-initiator</a>
                        </p>
                        <p>
                            <b>owner</b>: 
                            <a href="PractitionerRole-practitionerrole-bser-referral-recipient.html">PractitionerRole/practitionerrole-bser-referral-recipient</a>
                        </p>
                        <h3>Outputs</h3>
                        <table class="grid">
                            <tr>
                                <td>-</td>
                                <td>
                                    <b>Type</b>
                                </td>
                                <td>
                                    <b>Value[x]</b>
                                </td>
                            </tr>
                            <tr>
                                <td>*</td>
                                <td>Arthritis referral feedback 
                                    <span style="background: LightGoldenRodYellow; margin: 4px; border: 1px solid khaki"> ()</span>
                                </td>
                                <td>
                                    <a href="Bundle-bundle-bser-referral-feedback-document-bundle-eve-everywoman.html">Bundle/bundle-bser-referral-feedback-document-bundle-eve-everywoman</a>
                                </td>
                            </tr>
                        </table>
                    </div>
                </text>
                <identifier>
                    <type>
                        <coding>
                            <system value="http://terminology.hl7.org/CodeSystem/v2-0203"/>
                            <code value="PLAC"/>
                        </coding>
                    </type>
                    <value value="66666666"/>
                    <assigner>
                        <reference value="Organization/organization-bser-organization-saint-luke"/>
                    </assigner>
                </identifier>
                <identifier>
                    <type>
                        <coding>
                            <system value="http://terminology.hl7.org/CodeSystem/v2-0203"/>
                            <code value="FILL"/>
                        </coding>
                    </type>
                    <value value="77777777"/>
                    <assigner>
                        <reference value="Organization/organization-bser-organization-saint-luke"/>
                    </assigner>
                </identifier>
                <status value="requested"/>
                <businessStatus>
                    <coding>
                        <system value="http://hl7.org/fhir/us/bser/CodeSystem/TaskBusinessStatusCS"/>
                        <code value="7.0"/>
                        <display value="Service Request Fulfillment Completed"/>
                    </coding>
                </businessStatus>
                <intent value="order"/>
                <focus>
                    <reference value="ServiceRequest/servicerequest-BSeR-ReferralServiceRequest"/>
                </focus>
                <authoredOn value="2020-01-15T14:43:32-04:00"/>
                <requester>
                    <reference value="PractitionerRole/practitionerrole-bser-referral-initiator"/>
                </requester>
                <owner>
                    <reference value="PractitionerRole/practitionerrole-bser-referral-recipient"/>
                </owner>
                <output>
                    <type>
                        <text value="Arthritis referral feedback"/>
                    </type>
                    <valueReference>
                        <reference value="Bundle/bundle-bser-referral-feedback-document-bundle-eve-everywoman"/>
                    </valueReference>
                </output>
            </Task>
        </resource>
    </entry>
</Bundle>