<?xml version="1.0" encoding="UTF-8"?>
<Bundle xmlns="http://hl7.org/fhir">
  <id value="bundle-bser-referral-request-document-bundle-eve-everywoman" />
  <meta>
    <profile value="http://hl7.org/fhir/us/bser/StructureDefinition/BSeR-ReferralRequestDocumentBundle" />
  </meta>
  <identifier>
    <system value="urn:ietf:rfc:3986" />
    <value value="urn:uuid:2be4b4e4-6df1-4cb2-a947-c70fa0eda54c" />
  </identifier>
  <type value="document" />
  <timestamp value="2020-01-06T22:13:23Z" />
  <entry>
    <fullUrl value="Composition/composition-bser-referral-request" />
    <resource>
      <Composition xmlns="http://hl7.org/fhir">
        <id value="composition-bser-referral-request" />
        <meta>
          <versionId value="2" />
          <lastUpdated value="2020-01-21T22:46:41.000-05:00" />
          <profile value="http://hl7.org/fhir/us/bser/StructureDefinition/BSeR-ReferralRequestComposition" />
        </meta>
        <text>
          <status value="generated" />
          <div xmlns="http://www.w3.org/1999/xhtml">
            <table>
              <tr>
                <td style="font-weight: bold">id</td>
                <td>
                  <div title="id">composition-bser-referral-request</div>
                </td>
              </tr>
              <tr>
                <td style="font-weight: bold">meta</td>
                <td>
                  <table>
                    <tr>
                      <td style="font-weight: bold">profile</td>
                      <td>
                        <div title="profile">http://hl7.org/fhir/us/bser/StructureDefinition/BSeR-ReferralRequestComposition</div>
                      </td>
                    </tr>
                  </table>
                </td>
              </tr>
              <tr>
                <td style="font-weight: bold">status</td>
                <td>
                  <div title="status">final</div>
                </td>
              </tr>
              <tr>
                <td style="font-weight: bold">type</td>
                <td>
                  <ul style="list-style:none; padding-left:0; margin:0 0;">
                    <li>
                      <ul style="list-style:none; padding-left:0; margin:0 0;">
                        <li>
                          <div title="display">Referral note</div> (
                                       <div title="code">57133-1</div> ) 
                                    </li>
                        <li>
                          <div title="system">
                            <a href="http://loinc.org">http://loinc.org</a>
                          </div>
                        </li>
                      </ul>
                    </li>
                  </ul>
                </td>
              </tr>
              <tr>
                <td style="font-weight: bold">subject</td>
                <td>
                  <ul style="list-style:none; padding-left:0; margin:0 0;">
                    <li />
                    <li>
                      <a href="Patient-patient-us-core-patient-eve-everywoman.html">Eve Everywoman</a>
                    </li>
                  </ul>
                </td>
              </tr>
              <tr>
                <td style="font-weight: bold">date</td>
                <td>
                  <div title="date">2020-01-02T22:13:23Z</div>
                </td>
              </tr>
              <tr>
                <td style="font-weight: bold">author</td>
                <td>
                  <ul style="list-style:none; padding-left:0; margin:0 0;">
                    <li />
                    <li>
                      <a href="PractitionerRole-practitionerrole-bser-referral-initiator.html">Henry Seven, MD</a>
                    </li>
                  </ul>
                </td>
              </tr>
              <tr>
                <td style="font-weight: bold">title</td>
                <td>
                  <div title="title">Referral request</div>
                </td>
              </tr>
              <tr>
                <td style="font-weight: bold">section</td>
                <td>
                  <table>
                    <tr>
                      <td style="font-weight: bold">title</td>
                      <td>
                        <div title="title">Arthritis referral request supporting information</div>
                      </td>
                    </tr>
                    <tr>
                      <td style="font-weight: bold">code</td>
                      <td>
                        <ul style="list-style:none; padding-left:0; margin:0 0;">
                          <li>
                            <ul style="list-style:none; padding-left:0; margin:0 0;">
                              <li>
                                <div title="display">CompositionSectionReferralServiceRequestSupportingInformation</div> (
                                                <div title="code"
                                >RSRSI</div> ) 
                                             </li>
                              <li>
                                <div title="system">
                                  <a href=" http://hl7.org/fhir/us/bser/CodeSystem/bser"> http://hl7.org/fhir/us/bser/CodeSystem/bser</a>
                                </div>
                              </li>
                            </ul>
                          </li>
                        </ul>
                      </td>
                    </tr>
                  </table>
                </td>
              </tr>
            </table>
          </div>
        </text>
        <status value="final" />
        <type>
          <coding>
            <system value="http://loinc.org" />
            <code value="57133-1" />
            <display value="Referral note" />
          </coding>
        </type>
        <subject>
          <reference value="Patient/patient-us-core-patient-eve-everywoman" />
          <display value="Eve Everywoman" />
        </subject>
        <date value="2020-01-02T22:13:23Z" />
        <author>
          <reference value="PractitionerRole/practitionerrole-bser-referral-initiator" />
          <display value="Henry Seven, MD" />
        </author>
        <title value="Referral request" />
        <section>
          <title value="Arthritis referral request supporting information" />
          <code>
            <coding>
              <system value=" http://hl7.org/fhir/us/bser/CodeSystem/bser" />
              <code value="RSRSI" />
              <display value="CompositionSectionReferralServiceRequestSupportingInformation" />
            </coding>
          </code>
          <text>
            <status value="generated" />
            <div xmlns="http://www.w3.org/1999/xhtml">
              <table>
                <tr>
                  <td style="font-weight: bold">id</td>
                  <td>
                    <div title="id">composition-bser-referral-request</div>
                  </td>
                </tr>
                <tr>
                  <td style="font-weight: bold">meta</td>
                  <td>
                    <table>
                      <tr>
                        <td style="font-weight: bold">profile</td>
                        <td>
                          <div title="profile">http://hl7.org/fhir/us/bser/StructureDefinition/BSeR-ReferralRequestComposition</div>
                        </td>
                      </tr>
                    </table>
                  </td>
                </tr>
                <tr>
                  <td style="font-weight: bold">status</td>
                  <td>
                    <div title="status">final</div>
                  </td>
                </tr>
                <tr>
                  <td style="font-weight: bold">type</td>
                  <td>
                    <ul style="list-style:none; padding-left:0; margin:0 0;">
                      <li>
                        <ul style="list-style:none; padding-left:0; margin:0 0;">
                          <li>
                            <div title="display">Referral note</div> (
                                          <div title="code">57133-1</div> ) 
                                       </li>
                          <li>
                            <div title="system">
                              <a href="http://loinc.org">http://loinc.org</a>
                            </div>
                          </li>
                        </ul>
                      </li>
                    </ul>
                  </td>
                </tr>
                <tr>
                  <td style="font-weight: bold">subject</td>
                  <td>
                    <ul style="list-style:none; padding-left:0; margin:0 0;">
                      <li />
                      <li>
                        <a href="Patient-patient-us-core-patient-eve-everywoman.html">Eve Everywoman</a>
                      </li>
                    </ul>
                  </td>
                </tr>
                <tr>
                  <td style="font-weight: bold">date</td>
                  <td>
                    <div title="date">2020-01-02T22:13:23Z</div>
                  </td>
                </tr>
                <tr>
                  <td style="font-weight: bold">author</td>
                  <td>
                    <ul style="list-style:none; padding-left:0; margin:0 0;">
                      <li />
                      <li>
                        <a href="PractitionerRole-practitionerrole-bser-referral-initiator.html">Henry Seven, MD</a>
                      </li>
                    </ul>
                  </td>
                </tr>
                <tr>
                  <td style="font-weight: bold">title</td>
                  <td>
                    <div title="title">Referral request</div>
                  </td>
                </tr>
                <tr>
                  <td style="font-weight: bold">section</td>
                  <td>
                    <table>
                      <tr>
                        <td style="font-weight: bold">title</td>
                        <td>
                          <div title="title">Arthritis referral request supporting information</div>
                        </td>
                      </tr>
                      <tr>
                        <td style="font-weight: bold">code</td>
                        <td>
                          <ul style="list-style:none; padding-left:0; margin:0 0;">
                            <li>
                              <ul style="list-style:none; padding-left:0; margin:0 0;">
                                <li>
                                  <div title="display">CompositionSectionReferralServiceRequestSupportingInformation</div> (
                                                   <div title="code"
                                  >RSRSI</div> ) 
                                                </li>
                                <li>
                                  <div title="system">
                                    <a href=" http://hl7.org/fhir/us/bser/CodeSystem/bser"> http://hl7.org/fhir/us/bser/CodeSystem/bser</a>
                                  </div>
                                </li>
                              </ul>
                            </li>
                          </ul>
                        </td>
                      </tr>
                    </table>
                  </td>
                </tr>
              </table>
            </div>
          </text>
          <entry>
            <reference value="Bundle/bundle-bser-arthritis-referral-everywoman" />
          </entry>
        </section>
      </Composition>
    </resource>
  </entry>
  <entry>
    <fullUrl value="Patient/patient-us-core-patient-eve-everywoman" />
    <resource>
      <Patient xmlns="http://hl7.org/fhir">
        <id value="patient-us-core-patient-eve-everywoman" />
        <meta>
          <versionId value="3" />
          <lastUpdated value="2019-12-19T21:35:47.000-05:00" />
          <profile value="http://hl7.org/fhir/us/core/StructureDefinition/us-core-patient" />
        </meta>
        <text>
          <status value="generated" />
          <div xmlns="http://www.w3.org/1999/xhtml">
            <table>
              <tr>
                <td style="font-weight: bold">id</td>
                <td>
                  <span title="id">patient-us-core-patient-eve-everywoman</span>
                </td>
              </tr>
              <tr>
                <td style="font-weight: bold">meta</td>
                <td>
                  <table>
                    <tr>
                      <td style="font-weight: bold">profile</td>
                      <td>
                        <span title="profile">http://hl7.org/fhir/us/core/StructureDefinition/us-core-patient</span>
                      </td>
                    </tr>
                  </table>
                </td>
              </tr>
              <tr>
                <td style="font-weight: bold">us-core-race</td>
                <td>
                  <ul style="list-style:none; padding-left:0; margin:0 0;">
                    <li>
                      <span title="display">White</span>
                    </li>
                    <li>
                      <span title="system">urn:oid:2.16.840.1.113883.6.238</span>
                    </li>
                    <li>
                      <span title="code">2106-3</span>
                    </li>
                    <li>
                      <span title="valueString">White</span>
                    </li>
                  </ul>
                </td>
              </tr>
              <tr>
                <td style="font-weight: bold">us-core-ethnicity</td>
                <td>
                  <ul style="list-style:none; padding-left:0; margin:0 0;">
                    <li>
                      <span title="display">Not Hispanic or Latino</span>
                    </li>
                    <li>
                      <span title="system">urn:oid:2.16.840.1.113883.6.238</span>
                    </li>
                    <li>
                      <span title="code">2186-5</span>
                    </li>
                    <li>
                      <span title="valueString">Not Hispanic or Latino</span>
                    </li>
                  </ul>
                </td>
              </tr>
              <tr>
                <td style="font-weight: bold">us-core-birthsex</td>
                <td>
                  <ul style="list-style:none; padding-left:0; margin:0 0;">
                    <li>
                      <span title="valueCode">F</span>
                    </li>
                  </ul>
                </td>
              </tr>
              <tr>
                <td style="font-weight: bold">identifier</td>
                <td>
                  <ul style="list-style:none; padding-left:0; margin:0 0;">
                    <li>
                      <span title="use">usual</span>
                    </li>
                    <li>
                      <ul style="list-style:none; padding-left:0; margin:0 0;">
                        <li>
                          <span title="display">Medical Record Number</span> ( 
                                       <span title="code">MR</span> ) 
                                    </li>
                        <li>
                          <span title="system">
                            <a href="http://terminology.hl7.org/CodeSystem/v2-0203">http://terminology.hl7.org/CodeSystem/v2-0203</a>
                          </span>
                        </li>
                      </ul>
                    </li>
                    <li>
                      <span title="system">
                        <a href="http://hospital.smarthealthit.org">http://hospital.smarthealthit.org</a>
                      </span>
                    </li>
                    <li>
                      <span title="value">1032702</span>
                    </li>
                  </ul>
                </td>
              </tr>
              <tr>
                <td style="font-weight: bold">active</td>
                <td>
                  <span title="active">true</span>
                </td>
              </tr>
              <tr>
                <td style="font-weight: bold">name</td>
                <td>
                  <table>
                    <tr>
                      <td style="font-weight: bold">family</td>
                      <td>
                        <span title="family">Everywoman</span>
                      </td>
                    </tr>
                    <tr>
                      <td style="font-weight: bold">given</td>
                      <td>
                        <span title="given">Eve</span>
                      </td>
                    </tr>
                    <tr>
                      <td style="font-weight: bold">given</td>
                      <td>
                        <span title="given">L</span>
                      </td>
                    </tr>
                  </table>
                </td>
              </tr>
              <tr>
                <td style="font-weight: bold">telecom</td>
                <td>
                  <table>
                    <tr>
                      <td style="font-weight: bold">system</td>
                      <td>
                        <span title="system">phone</span>
                      </td>
                    </tr>
                    <tr>
                      <td style="font-weight: bold">value</td>
                      <td>
                        <span title="value">1-(404)555-1212</span>
                      </td>
                    </tr>
                    <tr>
                      <td style="font-weight: bold">use</td>
                      <td>
                        <span title="use">home</span>
                      </td>
                    </tr>
                  </table>
                </td>
              </tr>
              <tr>
                <td style="font-weight: bold">telecom</td>
                <td>
                  <table>
                    <tr>
                      <td style="font-weight: bold">system</td>
                      <td>
                        <span title="system">email</span>
                      </td>
                    </tr>
                    <tr>
                      <td style="font-weight: bold">value</td>
                      <td>
                        <span title="value">eve.everywoman@example.com</span>
                      </td>
                    </tr>
                  </table>
                </td>
              </tr>
              <tr>
                <td style="font-weight: bold">gender</td>
                <td>
                  <span title="gender">female</span>
                </td>
              </tr>
              <tr>
                <td style="font-weight: bold">birthDate</td>
                <td>
                  <span title="birthDate">1974-11-24</span>
                </td>
              </tr>
              <tr>
                <td style="font-weight: bold">address</td>
                <td>
                  <table>
                    <tr>
                      <td style="font-weight: bold">line</td>
                      <td>
                        <span title="line">5101 Peachtree St NE</span>
                      </td>
                    </tr>
                    <tr>
                      <td style="font-weight: bold">city</td>
                      <td>
                        <span title="city">Atlanta</span>
                      </td>
                    </tr>
                    <tr>
                      <td style="font-weight: bold">state</td>
                      <td>
                        <span title="state">GA</span>
                      </td>
                    </tr>
                    <tr>
                      <td style="font-weight: bold">postalCode</td>
                      <td>
                        <span title="postalCode">30302</span>
                      </td>
                    </tr>
                    <tr>
                      <td style="font-weight: bold">country</td>
                      <td>
                        <span title="country">US</span>
                      </td>
                    </tr>
                  </table>
                </td>
              </tr>
            </table>
          </div>
        </text>
        <extension url="http://hl7.org/fhir/us/core/StructureDefinition/us-core-race">
          <extension url="ombCategory">
            <valueCoding>
              <system value="urn:oid:2.16.840.1.113883.6.238" />
              <code value="2106-3" />
              <display value="White" />
            </valueCoding>
          </extension>
          <extension url="text">
            <valueString value="White" />
          </extension>
        </extension>
        <extension url="http://hl7.org/fhir/us/core/StructureDefinition/us-core-ethnicity">
          <extension url="ombCategory">
            <valueCoding>
              <system value="urn:oid:2.16.840.1.113883.6.238" />
              <code value="2186-5" />
              <display value="Not Hispanic or Latino" />
            </valueCoding>
          </extension>
          <extension url="text">
            <valueString value="Not Hispanic or Latino" />
          </extension>
        </extension>
        <extension url="http://hl7.org/fhir/us/core/StructureDefinition/us-core-birthsex">
          <valueCode value="F" />
        </extension>
        <identifier>
          <use value="usual" />
          <type>
            <coding>
              <system value="http://terminology.hl7.org/CodeSystem/v2-0203" />
              <code value="MR" />
              <display value="Medical Record Number" />
            </coding>
          </type>
          <system value="http://hospital.smarthealthit.org" />
          <value value="1032702" />
        </identifier>
        <active value="true" />
        <name>
          <family value="Everywoman" />
          <given value="Eve" />
          <given value="L" />
        </name>
        <telecom>
          <system value="phone" />
          <value value="1-(404)555-1212" />
          <use value="home" />
        </telecom>
        <telecom>
          <system value="email" />
          <value value="eve.everywoman@example.com" />
        </telecom>
        <gender value="female" />
        <birthDate value="1974-11-24" />
        <address>
               <line value="5101 Peachtree St NE" />
               <city value="Atlanta" />
               <state value="GA" />
               <postalCode value="30302" />
               <country value="US" />
            </address>
      </Patient>
    </resource>
  </entry>
  <entry>
    <fullUrl value="Bundle/bundle-bser-arthritis-referral-everywoman" />
    <resource>
      <Bundle xmlns="http://hl7.org/fhir">
        <id value="bundle-bser-arthritis-referral-everywoman" />
        <meta>
          <versionId value="6" />
          <lastUpdated value="2020-01-17T23:54:54.000-05:00" />
          <profile value="http://hl7.org/fhir/us/bser/StructureDefinition/BSeR-ArthritisReferralSupportingInformation" />
        </meta>
        <type value="collection" />
        <entry>
          <fullUrl value="Observation/observation-blood-pressure-eve-everywoman" />
          <resource>
            <Observation xmlns="http://hl7.org/fhir">
              <id value="observation-blood-pressure-eve-everywoman" />
              <text>
                <status value="generated" />
                <div xmlns="http://www.w3.org/1999/xhtml">
                  <table>
                    <tr>
                      <td style="font-weight: bold">id</td>
                      <td>
                        <span title="id">observation-blood-pressure-eve-everywoman</span>
                      </td>
                    </tr>
                    <tr>
                      <td style="font-weight: bold">meta</td>
                      <td>
                        <table>
                          <tr>
                            <td style="font-weight: bold">profile</td>
                            <td>
                              <span title="profile">http://hl7.org/fhir/StructureDefinition/bp</span>
                            </td>
                          </tr>
                        </table>
                      </td>
                    </tr>
                    <tr>
                      <td style="font-weight: bold">status</td>
                      <td>
                        <span title="status">final</span>
                      </td>
                    </tr>
                    <tr>
                      <td style="font-weight: bold">category</td>
                      <td>
                        <ul style="list-style:none; padding-left:0; margin:0 0;">
                          <li>
                            <span title="text">Vital Signs</span>
                          </li>
                          <li>
                            <ul style="list-style:none; padding-left:0; margin:0 0;">
                              <li>
                                <span title="display">Vital Signs</span> ( 
                                                <span title="code"
                                >vital-signs</span> ) 
                                             </li>
                              <li>
                                <span title="system">
                                  <a href="http://terminology.hl7.org/CodeSystem/observation-category">http://terminology.hl7.org/CodeSystem/observation-category</a>
                                </span>
                              </li>
                            </ul>
                          </li>
                        </ul>
                      </td>
                    </tr>
                    <tr>
                      <td style="font-weight: bold">code</td>
                      <td>
                        <ul style="list-style:none; padding-left:0; margin:0 0;">
                          <li>
                            <span title="text">Blood pressure systolic &amp; diastolic</span>
                          </li>
                          <li>
                            <ul style="list-style:none; padding-left:0; margin:0 0;">
                              <li>
                                <span title="display">Blood pressure panel with all children optional</span> ( 
                                                <span title="code"
                                >85354-9</span> ) 
                                             </li>
                              <li>
                                <span title="system">
                                  <a href="http://loinc.org">http://loinc.org</a>
                                </span>
                              </li>
                            </ul>
                          </li>
                        </ul>
                      </td>
                    </tr>
                    <tr>
                      <td style="font-weight: bold">subject</td>
                      <td>
                        <ul style="list-style:none; padding-left:0; margin:0 0;">
                          <li />
                          <li>
                            <a href="Patient-patient-us-core-patient-eve-everywoman.html">Eve Everywoman</a>
                          </li>
                        </ul>
                      </td>
                    </tr>
                    <tr>
                      <td style="font-weight: bold">effectiveDateTime</td>
                      <td>
                        <span title="effectiveDateTime">2019-01-17</span>
                      </td>
                    </tr>
                    <tr>
                      <td style="font-weight: bold">performer</td>
                      <td>
                        <ul style="list-style:none; padding-left:0; margin:0 0;">
                          <li>
                            <a href="Practitioner-practitioner-bser-henry-seven.html">Practitioner/practitioner-bser-henry-seven</a>
                          </li>
                        </ul>
                      </td>
                    </tr>
                    <tr>
                      <td style="font-weight: bold">component</td>
                      <td>
                        <table>
                          <tr>
                            <td style="font-weight: bold">code</td>
                            <td>
                              <ul style="list-style:none; padding-left:0; margin:0 0;">
                                <li>
                                  <ul style="list-style:none; padding-left:0; margin:0 0;">
                                    <li>
                                      <span title="display">Systolic blood pressure</span> ( 
                                                         <span title="code"
                                      >8480-6</span> ) 
                                                      </li>
                                    <li>
                                      <span title="system">
                                        <a href="http://loinc.org">http://loinc.org</a>
                                      </span>
                                    </li>
                                  </ul>
                                </li>
                              </ul>
                            </td>
                          </tr>
                          <tr>
                            <td style="font-weight: bold">valueQuantity</td>
                            <td>
                              <ul style="list-style:none; padding-left:0; margin:0 0;">
                                <li>
                                  <span title="value">107</span>
                                </li>
                                <li>
                                  <span title="unit">mmHg</span>
                                </li>
                                <li>
                                  <span title="system">
                                    <a href="http://unitsofmeasure.org">http://unitsofmeasure.org</a>
                                  </span>
                                </li>
                                <li>
                                  <span title="code">mm[Hg]</span>
                                </li>
                              </ul>
                            </td>
                          </tr>
                        </table>
                      </td>
                    </tr>
                    <tr>
                      <td style="font-weight: bold">component</td>
                      <td>
                        <table>
                          <tr>
                            <td style="font-weight: bold">code</td>
                            <td>
                              <ul style="list-style:none; padding-left:0; margin:0 0;">
                                <li>
                                  <ul style="list-style:none; padding-left:0; margin:0 0;">
                                    <li>
                                      <span title="display">Diastolic blood pressure</span> ( 
                                                         <span title="code"
                                      >8462-4</span> ) 
                                                      </li>
                                    <li>
                                      <span title="system">
                                        <a href="http://loinc.org">http://loinc.org</a>
                                      </span>
                                    </li>
                                  </ul>
                                </li>
                              </ul>
                            </td>
                          </tr>
                          <tr>
                            <td style="font-weight: bold">valueQuantity</td>
                            <td>
                              <ul style="list-style:none; padding-left:0; margin:0 0;">
                                <li>
                                  <span title="value">60</span>
                                </li>
                                <li>
                                  <span title="unit">mmHg</span>
                                </li>
                                <li>
                                  <span title="system">
                                    <a href="http://unitsofmeasure.org">http://unitsofmeasure.org</a>
                                  </span>
                                </li>
                                <li>
                                  <span title="code">mm[Hg]</span>
                                </li>
                              </ul>
                            </td>
                          </tr>
                        </table>
                      </td>
                    </tr>
                  </table>
                </div>
              </text>
              <status value="final" />
              <category>
                <coding>
                  <system value="http://terminology.hl7.org/CodeSystem/observation-category" />
                  <code value="vital-signs" />
                  <display value="Vital Signs" />
                </coding>
                <text value="Vital Signs" />
              </category>
              <code>
                <coding>
                  <system value="http://loinc.org" />
                  <code value="85354-9" />
                  <display value="Blood pressure panel with all children optional" />
                </coding>
                <text value="Blood pressure systolic &amp; diastolic" />
              </code>
              <subject>
                <reference value="Patient/patient-us-core-patient-eve-everywoman" />
                <display value="Eve Everywoman" />
              </subject>
              <effectiveDateTime value="2019-01-17" />
              <performer>
                <reference value="Practitioner/practitioner-bser-henry-seven" />
              </performer>
              <component>
                <code>
                  <coding>
                    <system value="http://loinc.org" />
                    <code value="8480-6" />
                    <display value="Systolic blood pressure" />
                  </coding>
                </code>
                <valueQuantity>
                  <value value="107" />
                  <unit value="mmHg" />
                  <system value="http://unitsofmeasure.org" />
                  <code value="mm[Hg]" />
                </valueQuantity>
              </component>
              <component>
                <code>
                  <coding>
                    <system value="http://loinc.org" />
                    <code value="8462-4" />
                    <display value="Diastolic blood pressure" />
                  </coding>
                </code>
                <valueQuantity>
                  <value value="60" />
                  <unit value="mmHg" />
                  <system value="http://unitsofmeasure.org" />
                  <code value="mm[Hg]" />
                </valueQuantity>
              </component>
            </Observation>
          </resource>
        </entry>
        <entry>
          <fullUrl value="Observation/observation-body-height-eve-everywoman" />
          <resource>
            <Observation xmlns="http://hl7.org/fhir">
              <id value="observation-body-height-eve-everywoman" />
              <text>
                <status value="generated" />
                <div xmlns="http://www.w3.org/1999/xhtml">
                  <table>
                    <tr>
                      <td style="font-weight: bold">id</td>
                      <td>
                        <div title="id">observation-body-height-eve-everywoman</div>
                      </td>
                    </tr>
                    <tr>
                      <td style="font-weight: bold">meta</td>
                      <td>
                        <table>
                          <tr>
                            <td style="font-weight: bold">profile</td>
                            <td>
                              <div title="profile">http://hl7.org/fhir/StructureDefinition/bodyheight</div>
                            </td>
                          </tr>
                        </table>
                      </td>
                    </tr>
                    <tr>
                      <td style="font-weight: bold">status</td>
                      <td>
                        <div title="status">final</div>
                      </td>
                    </tr>
                    <tr>
                      <td style="font-weight: bold">category</td>
                      <td>
                        <ul style="list-style:none; padding-left:0; margin:0 0;">
                          <li>
                            <div title="text">Vital Signs</div>
                          </li>
                          <li>
                            <ul style="list-style:none; padding-left:0; margin:0 0;">
                              <li>
                                <div title="display">Vital Signs</div> ( 
                                                <div title="code"
                                >vital-signs</div> ) 
                                             </li>
                              <li>
                                <div title="system">
                                  <a href="http://terminology.hl7.org/CodeSystem/observation-category">http://terminology.hl7.org/CodeSystem/observation-category</a>
                                </div>
                              </li>
                            </ul>
                          </li>
                        </ul>
                      </td>
                    </tr>
                    <tr>
                      <td style="font-weight: bold">code</td>
                      <td>
                        <ul style="list-style:none; padding-left:0; margin:0 0;">
                          <li>
                            <div title="text">Body height</div>
                          </li>
                          <li>
                            <ul style="list-style:none; padding-left:0; margin:0 0;">
                              <li>
                                <div title="display">Body height</div> ( 
                                                <div title="code">8302-2</div> ) 
                                             </li>
                              <li>
                                <div title="system">
                                  <a href="http://loinc.org">http://loinc.org</a>
                                </div>
                              </li>
                            </ul>
                          </li>
                        </ul>
                      </td>
                    </tr>
                    <tr>
                      <td style="font-weight: bold">subject</td>
                      <td>
                        <ul style="list-style:none; padding-left:0; margin:0 0;">
                          <li />
                          <li>
                            <a href="Patient-patient-us-core-patient-eve-everywoman.html">Eve Everywoman</a>
                          </li>
                        </ul>
                      </td>
                    </tr>
                    <tr>
                      <td style="font-weight: bold">effectiveDateTime</td>
                      <td>
                        <div title="effectiveDateTime">2019-01-17</div>
                      </td>
                    </tr>
                    <tr>
                      <td style="font-weight: bold">performer</td>
                      <td>
                        <ul style="list-style:none; padding-left:0; margin:0 0;">
                          <li>
                            <a href="Practitioner-practitioner-bser-henry-seven.html">Practitioner/practitioner-bser-henry-seven</a>
                          </li>
                        </ul>
                      </td>
                    </tr>
                    <tr>
                      <td style="font-weight: bold">valueQuantity</td>
                      <td>
                        <ul style="list-style:none; padding-left:0; margin:0 0;">
                          <li>
                            <div title="value">21</div>
                          </li>
                          <li>
                            <div title="unit">in</div>
                          </li>
                          <li>
                            <div title="system">
                              <a href="http://unitsofmeasure.org">http://unitsofmeasure.org</a>
                            </div>
                          </li>
                          <li>
                            <div title="code">[in_i]</div>
                          </li>
                        </ul>
                      </td>
                    </tr>
                  </table>
                </div>
              </text>
              <status value="final" />
              <category>
                <coding>
                  <system value="http://terminology.hl7.org/CodeSystem/observation-category" />
                  <code value="vital-signs" />
                  <display value="Vital Signs" />
                </coding>
                <text value="Vital Signs" />
              </category>
              <code>
                <coding>
                  <system value="http://loinc.org" />
                  <code value="8302-2" />
                  <display value="Body height" />
                </coding>
                <text value="Body height" />
              </code>
              <subject>
                <reference value="Patient/patient-us-core-patient-eve-everywoman" />
                <display value="Eve Everywoman" />
              </subject>
              <effectiveDateTime value="2019-01-17" />
              <performer>
                <reference value="Practitioner/practitioner-bser-henry-seven" />
              </performer>
              <valueQuantity>
                <value value="21" />
                <unit value="in" />
                <system value="http://unitsofmeasure.org" />
                <code value="[in_i]" />
              </valueQuantity>
            </Observation>
          </resource>
        </entry>
        <entry>
          <fullUrl value="Observation/observation-bmi-eve-everywoman" />
          <resource>
            <Observation xmlns="http://hl7.org/fhir">
              <id value="observation-bmi-eve-everywoman" />
              <text>
                <status value="generated" />
                <div xmlns="http://www.w3.org/1999/xhtml">
                  <table>
                    <tr>
                      <td style="font-weight: bold">id</td>
                      <td>
                        <span title="id">observation-bmi-eve-everywoman</span>
                      </td>
                    </tr>
                    <tr>
                      <td style="font-weight: bold">meta</td>
                      <td>
                        <table>
                          <tr>
                            <td style="font-weight: bold">profile</td>
                            <td>
                              <span title="profile">http://hl7.org/fhir/StructureDefinition/bmi</span>
                            </td>
                          </tr>
                        </table>
                      </td>
                    </tr>
                    <tr>
                      <td style="font-weight: bold">status</td>
                      <td>
                        <span title="status">final</span>
                      </td>
                    </tr>
                    <tr>
                      <td style="font-weight: bold">category</td>
                      <td>
                        <ul style="list-style:none; padding-left:0; margin:0 0;">
                          <li>
                            <span title="text">Vital Signs</span>
                          </li>
                          <li>
                            <ul style="list-style:none; padding-left:0; margin:0 0;">
                              <li>
                                <span title="display">Vital Signs</span> ( 
                                                <span title="code"
                                >vital-signs</span> ) 
                                             </li>
                              <li>
                                <span title="system">
                                  <a href="http://terminology.hl7.org/CodeSystem/observation-category">http://terminology.hl7.org/CodeSystem/observation-category</a>
                                </span>
                              </li>
                            </ul>
                          </li>
                        </ul>
                      </td>
                    </tr>
                    <tr>
                      <td style="font-weight: bold">code</td>
                      <td>
                        <ul style="list-style:none; padding-left:0; margin:0 0;">
                          <li>
                            <span title="text">BMI</span>
                          </li>
                          <li>
                            <ul style="list-style:none; padding-left:0; margin:0 0;">
                              <li>
                                <span title="display">Body mass index (BMI) [Ratio]</span> ( 
                                                <span title="code"
                                >39156-5</span> ) 
                                             </li>
                              <li>
                                <span title="system">
                                  <a href="http://loinc.org">http://loinc.org</a>
                                </span>
                              </li>
                            </ul>
                          </li>
                        </ul>
                      </td>
                    </tr>
                    <tr>
                      <td style="font-weight: bold">subject</td>
                      <td>
                        <ul style="list-style:none; padding-left:0; margin:0 0;">
                          <li />
                          <li>
                            <a href="Patient-patient-us-core-patient-eve-everywoman.html">Eve Everywoman</a>
                          </li>
                        </ul>
                      </td>
                    </tr>
                    <tr>
                      <td style="font-weight: bold">effectiveDateTime</td>
                      <td>
                        <span title="effectiveDateTime">2019-01-17</span>
                      </td>
                    </tr>
                    <tr>
                      <td style="font-weight: bold">performer</td>
                      <td>
                        <ul style="list-style:none; padding-left:0; margin:0 0;">
                          <li>
                            <a href="Practitioner-practitioner-bser-henry-seven.html">Practitioner/practitioner-bser-henry-seven</a>
                          </li>
                        </ul>
                      </td>
                    </tr>
                    <tr>
                      <td style="font-weight: bold">valueQuantity</td>
                      <td>
                        <ul style="list-style:none; padding-left:0; margin:0 0;">
                          <li>
                            <span title="value">16.2</span>
                          </li>
                          <li>
                            <span title="unit">kg/m2</span>
                          </li>
                          <li>
                            <span title="system">
                              <a href="http://unitsofmeasure.org">http://unitsofmeasure.org</a>
                            </span>
                          </li>
                          <li>
                            <span title="code">kg/m2</span>
                          </li>
                        </ul>
                      </td>
                    </tr>
                  </table>
                </div>
              </text>
              <status value="final" />
              <category>
                <coding>
                  <system value="http://terminology.hl7.org/CodeSystem/observation-category" />
                  <code value="vital-signs" />
                  <display value="Vital Signs" />
                </coding>
                <text value="Vital Signs" />
              </category>
              <code>
                <coding>
                  <system value="http://loinc.org" />
                  <code value="39156-5" />
                  <display value="Body mass index (BMI) [Ratio]" />
                </coding>
                <text value="BMI" />
              </code>
              <subject>
                <reference value="Patient/patient-us-core-patient-eve-everywoman" />
                <display value="Eve Everywoman" />
              </subject>
              <effectiveDateTime value="2019-01-17" />
              <performer>
                <reference value="Practitioner/practitioner-bser-henry-seven" />
              </performer>
              <valueQuantity>
                <value value="16.2" />
                <unit value="kg/m2" />
                <system value="http://unitsofmeasure.org" />
                <code value="kg/m2" />
              </valueQuantity>
            </Observation>
          </resource>
        </entry>
        <entry>
          <fullUrl value="Observation/observation-body-weight-eve-everywoman" />
          <resource>
            <Observation xmlns="http://hl7.org/fhir">
              <id value="observation-body-weight-eve-everywoman" />
              <text>
                <status value="generated" />
                <div xmlns="http://www.w3.org/1999/xhtml">
                  <table>
                    <tr>
                      <td style="font-weight: bold">id</td>
                      <td>
                        <span title="id">observation-body-weight-eve-everywoman</span>
                      </td>
                    </tr>
                    <tr>
                      <td style="font-weight: bold">meta</td>
                      <td>
                        <table>
                          <tr>
                            <td style="font-weight: bold">profile</td>
                            <td>
                              <span title="profile">http://hl7.org/fhir/StructureDefinition/bodyweight</span>
                            </td>
                          </tr>
                        </table>
                      </td>
                    </tr>
                    <tr>
                      <td style="font-weight: bold">status</td>
                      <td>
                        <span title="status">final</span>
                      </td>
                    </tr>
                    <tr>
                      <td style="font-weight: bold">category</td>
                      <td>
                        <ul style="list-style:none; padding-left:0; margin:0 0;">
                          <li>
                            <span title="text">Vital Signs</span>
                          </li>
                          <li>
                            <ul style="list-style:none; padding-left:0; margin:0 0;">
                              <li>
                                <span title="display">Vital Signs</span> ( 
                                                <span title="code"
                                >vital-signs</span> ) 
                                             </li>
                              <li>
                                <span title="system">
                                  <a href="http://terminology.hl7.org/CodeSystem/observation-category">http://terminology.hl7.org/CodeSystem/observation-category</a>
                                </span>
                              </li>
                            </ul>
                          </li>
                        </ul>
                      </td>
                    </tr>
                    <tr>
                      <td style="font-weight: bold">code</td>
                      <td>
                        <ul style="list-style:none; padding-left:0; margin:0 0;">
                          <li>
                            <span title="text">Body weight</span>
                          </li>
                          <li>
                            <ul style="list-style:none; padding-left:0; margin:0 0;">
                              <li>
                                <span title="display">Body weight</span> ( 
                                                <span title="code"
                                >29463-7</span> ) 
                                             </li>
                              <li>
                                <span title="system">
                                  <a href="http://loinc.org">http://loinc.org</a>
                                </span>
                              </li>
                            </ul>
                          </li>
                        </ul>
                      </td>
                    </tr>
                    <tr>
                      <td style="font-weight: bold">subject</td>
                      <td>
                        <ul style="list-style:none; padding-left:0; margin:0 0;">
                          <li />
                          <li>
                            <a href="Patient-patient-us-core-patient-eve-everywoman.html">Eve Everywoman</a>
                          </li>
                        </ul>
                      </td>
                    </tr>
                    <tr>
                      <td style="font-weight: bold">effectiveDateTime</td>
                      <td>
                        <span title="effectiveDateTime">2019-01-17</span>
                      </td>
                    </tr>
                    <tr>
                      <td style="font-weight: bold">performer</td>
                      <td>
                        <ul style="list-style:none; padding-left:0; margin:0 0;">
                          <li>
                            <a href="Practitioner-practitioner-bser-henry-seven.html">Practitioner/practitioner-bser-henry-seven</a>
                          </li>
                        </ul>
                      </td>
                    </tr>
                    <tr>
                      <td style="font-weight: bold">valueQuantity</td>
                      <td>
                        <ul style="list-style:none; padding-left:0; margin:0 0;">
                          <li>
                            <span title="value">65</span>
                          </li>
                          <li>
                            <span title="unit">kg</span>
                          </li>
                          <li>
                            <span title="system">
                              <a href="http://unitsofmeasure.org">http://unitsofmeasure.org</a>
                            </span>
                          </li>
                          <li>
                            <span title="code">kg</span>
                          </li>
                        </ul>
                      </td>
                    </tr>
                  </table>
                </div>
              </text>
              <status value="final" />
              <category>
                <coding>
                  <system value="http://terminology.hl7.org/CodeSystem/observation-category" />
                  <code value="vital-signs" />
                  <display value="Vital Signs" />
                </coding>
                <text value="Vital Signs" />
              </category>
              <code>
                <coding>
                  <system value="http://loinc.org" />
                  <code value="29463-7" />
                  <display value="Body weight" />
                </coding>
                <text value="Body weight" />
              </code>
              <subject>
                <reference value="Patient/patient-us-core-patient-eve-everywoman" />
                <display value="Eve Everywoman" />
              </subject>
              <effectiveDateTime value="2019-01-17" />
              <performer>
                <reference value="Practitioner/practitioner-bser-henry-seven" />
              </performer>
              <valueQuantity>
                <value value="65" />
                <unit value="kg" />
                <system value="http://unitsofmeasure.org" />
                <code value="kg" />
              </valueQuantity>
            </Observation>
          </resource>
        </entry>
        <entry>
          <fullUrl value="Observation/allergyintolerance-us-core-allergyint-eve-everywoman" />
          <resource>
            <AllergyIntolerance xmlns="http://hl7.org/fhir">
              <id value="allergyintolerance-us-core-allergyint-eve-everywoman" />
              <text>
                <status value="generated" />
                <div xmlns="http://www.w3.org/1999/xhtml">
                  <table>
                    <tr>
                      <td style="font-weight: bold">id</td>
                      <td>
                        <span title="id">allergyintolerance-us-core-allergyint-eve-everywoman</span>
                      </td>
                    </tr>
                    <tr>
                      <td style="font-weight: bold">meta</td>
                      <td>
                        <table>
                          <tr>
                            <td style="font-weight: bold">versionId</td>
                            <td>
                              <span title="versionId">1</span>
                            </td>
                          </tr>
                          <tr>
                            <td style="font-weight: bold">lastUpdated</td>
                            <td>
                              <span title="lastUpdated">2019-12-10T22:03:24.000-05:00</span>
                            </td>
                          </tr>
                          <tr>
                            <td style="font-weight: bold">profile</td>
                            <td>
                              <span title="profile">http://hl7.org/fhir/us/core/StructureDefinition/us-core-allergyintolerance</span>
                            </td>
                          </tr>
                        </table>
                      </td>
                    </tr>
                    <tr>
                      <td style="font-weight: bold">clinicalStatus</td>
                      <td>
                        <ul style="list-style:none; padding-left:0; margin:0 0;">
                          <li>
                            <ul style="list-style:none; padding-left:0; margin:0 0;">
                              <li> ( 
                                                <span title="code">active</span> ) 
                                             </li>
                              <li>
                                <span title="system">
                                  <a href="http://terminology.hl7.org/CodeSystem/allergyintolerance-clinical">http://terminology.hl7.org/CodeSystem/allergyintolerance-clinical</a>
                                </span>
                              </li>
                            </ul>
                          </li>
                        </ul>
                      </td>
                    </tr>
                    <tr>
                      <td style="font-weight: bold">verificationStatus</td>
                      <td>
                        <ul style="list-style:none; padding-left:0; margin:0 0;">
                          <li>
                            <ul style="list-style:none; padding-left:0; margin:0 0;">
                              <li> ( 
                                                <span title="code">confirmed</span> ) 
                                             </li>
                              <li>
                                <span title="system">
                                  <a href="http://terminology.hl7.org/CodeSystem/allergyintolerance-verification">http://terminology.hl7.org/CodeSystem/allergyintolerance-verification</a>
                                </span>
                              </li>
                            </ul>
                          </li>
                        </ul>
                      </td>
                    </tr>
                    <tr>
                      <td style="font-weight: bold">category</td>
                      <td>
                        <span title="category">medication</span>
                      </td>
                    </tr>
                    <tr>
                      <td style="font-weight: bold">criticality</td>
                      <td>
                        <span title="criticality">high</span>
                      </td>
                    </tr>
                    <tr>
                      <td style="font-weight: bold">code</td>
                      <td>
                        <ul style="list-style:none; padding-left:0; margin:0 0;">
                          <li>
                            <span title="text">sulfonamide antibacterial</span>
                          </li>
                          <li>
                            <ul style="list-style:none; padding-left:0; margin:0 0;">
                              <li>
                                <span title="display">Sulfonamide (substance)</span> ( 
                                                <span title="code"
                                >387406002</span> ) 
                                             </li>
                              <li>
                                <span title="system">
                                  <a href="http://snomed.info/sct">http://snomed.info/sct</a>
                                </span>
                              </li>
                            </ul>
                          </li>
                        </ul>
                      </td>
                    </tr>
                    <tr>
                      <td style="font-weight: bold">reaction</td>
                      <td>
                        <table>
                          <tr>
                            <td style="font-weight: bold">manifestation</td>
                            <td>
                              <ul style="list-style:none; padding-left:0; margin:0 0;">
                                <li>
                                  <span title="text">skin rash</span>
                                </li>
                                <li>
                                  <ul style="list-style:none; padding-left:0; margin:0 0;">
                                    <li>
                                      <span title="display">skin rash</span> ( 
                                                         <span title="code"
                                      >271807003</span> ) 
                                                      </li>
                                    <li>
                                      <span title="system">
                                        <a href="http://snomed.info/sct">http://snomed.info/sct</a>
                                      </span>
                                    </li>
                                  </ul>
                                </li>
                              </ul>
                            </td>
                          </tr>
                          <tr>
                            <td style="font-weight: bold">severity</td>
                            <td>
                              <span title="severity">mild</span>
                            </td>
                          </tr>
                        </table>
                      </td>
                    </tr>
                  </table>
                </div>
              </text>
              <clinicalStatus>
                <coding>
                  <system value="http://terminology.hl7.org/CodeSystem/allergyintolerance-clinical" />
                  <code value="active" />
                </coding>
              </clinicalStatus>
              <verificationStatus>
                <coding>
                  <system value="http://terminology.hl7.org/CodeSystem/allergyintolerance-verification" />
                  <code value="confirmed" />
                </coding>
              </verificationStatus>
              <category value="medication" />
              <criticality value="high" />
              <code>
                <coding>
                  <system value="http://snomed.info/sct" />
                  <code value="387406002" />
                  <display value="Sulfonamide (substance)" />
                </coding>
                <text value="sulfonamide antibacterial" />
              </code>
              <patient>
                <reference value="Patient/patient-us-core-patient-eve-everywoman" />
                <display value="Eve Everywoman" />
              </patient>
              <reaction>
                <manifestation>
                  <coding>
                    <system value="http://snomed.info/sct" />
                    <code value="271807003" />
                    <display value="skin rash" />
                  </coding>
                  <text value="skin rash" />
                </manifestation>
                <severity value="mild" />
              </reaction>
            </AllergyIntolerance>
          </resource>
        </entry>
      </Bundle>
    </resource>
  </entry>
  <entry>
    <fullUrl value="PractitionerRole/practitionerrole-bser-referral-initiator" />
    <resource>
      <PractitionerRole xmlns="http://hl7.org/fhir">
        <id value="practitionerrole-bser-referral-initiator" />
        <meta>
          <versionId value="6" />
          <lastUpdated value="2020-01-18T00:10:51.000-05:00" />
          <profile value="http://hl7.org/fhir/us/bser/StructureDefinition/BSeR-ReferralInitiatorPractitionerRole" />
        </meta>
        <text>
          <status value="generated" />
          <div xmlns="http://www.w3.org/1999/xhtml">
            <table>
              <tr>
                <td style="font-weight: bold">id</td>
                <td>
                  <div title="id">practitionerrole-bser-referral-initiator</div>
                </td>
              </tr>
              <tr>
                <td style="font-weight: bold">meta</td>
                <td>
                  <table>
                    <tr>
                      <td style="font-weight: bold">profile</td>
                      <td>
                        <div title="profile">http://hl7.org/fhir/us/bser/StructureDefinition/BSeR-ReferralInitiatorPractitionerRole</div>
                      </td>
                    </tr>
                  </table>
                </td>
              </tr>
              <tr>
                <td style="font-weight: bold">identifier</td>
                <td>
                  <ul style="list-style:none; padding-left:0; margin:0 0;">
                    <li>
                      <div title="system">
                        <a href="http://hl7.org/fhir/sid/us-npi">http://hl7.org/fhir/sid/us-npi</a>
                      </div>
                    </li>
                    <li>
                      <div title="value">1111111111</div>
                    </li>
                  </ul>
                </td>
              </tr>
              <tr>
                <td style="font-weight: bold">practitioner</td>
                <td>
                  <ul style="list-style:none; padding-left:0; margin:0 0;">
                    <li />
                    <li>
                      <a href="Practitioner-practitioner-bser-henry-seven.html">Henry Seven, MD</a>
                    </li>
                  </ul>
                </td>
              </tr>
              <tr>
                <td style="font-weight: bold">organization</td>
                <td>
                  <ul style="list-style:none; padding-left:0; margin:0 0;">
                    <li>
                      <a href="Organization-organization-bser-organization-saint-luke.html">Organization/organization-bser-organization-saint-luke</a>
                    </li>
                  </ul>
                </td>
              </tr>
              <tr>
                <td style="font-weight: bold">code</td>
                <td>
                  <ul style="list-style:none; padding-left:0; margin:0 0;">
                    <li>
                      <ul style="list-style:none; padding-left:0; margin:0 0;">
                        <li>
                          <div title="display">Primary Care</div> ( 
                                       <div title="code">261QP2300X</div> ) 
                                    </li>
                        <li>
                          <div title="system">
                            <a href="http://nucc.org/provider-taxonomy">http://nucc.org/provider-taxonomy</a>
                          </div>
                        </li>
                      </ul>
                    </li>
                  </ul>
                </td>
              </tr>
              <tr>
                <td style="font-weight: bold">specialty</td>
                <td>
                  <ul style="list-style:none; padding-left:0; margin:0 0;">
                    <li>
                      <ul style="list-style:none; padding-left:0; margin:0 0;">
                        <li>
                          <div title="display">Family Practice</div> ( 
                                       <div title="code">419772000</div> ) 
                                    </li>
                        <li>
                          <div title="system">
                            <a href="http://snomed.info/sct">http://snomed.info/sct</a>
                          </div>
                        </li>
                      </ul>
                    </li>
                  </ul>
                </td>
              </tr>
              <tr>
                <td style="font-weight: bold">telecom</td>
                <td>
                  <table>
                    <tr>
                      <td style="font-weight: bold">system</td>
                      <td>
                        <div title="system">email</div>
                      </td>
                    </tr>
                    <tr>
                      <td style="font-weight: bold">value</td>
                      <td>
                        <div title="value">henry.seven@example.com</div>
                      </td>
                    </tr>
                  </table>
                </td>
              </tr>
            </table>
          </div>
        </text>
        <identifier>
          <system value="http://hl7.org/fhir/sid/us-npi" />
          <value value="1111111111" />
        </identifier>
        <practitioner>
          <reference value="Practitioner/practitioner-bser-henry-seven" />
          <display value="Henry Seven, MD" />
        </practitioner>
        <organization>
          <reference value="Organization/organization-bser-organization-saint-luke" />
        </organization>
        <code>
          <coding>
            <system value="http://nucc.org/provider-taxonomy" />
            <code value="261QP2300X" />
            <display value="Primary Care" />
          </coding>
        </code>
        <specialty>
          <coding>
            <system value="http://snomed.info/sct" />
            <code value="419772000" />
            <display value="Family Practice" />
          </coding>
        </specialty>
        <telecom>
          <system value="email" />
          <value value="henry.seven@example.com" />
        </telecom>
      </PractitionerRole>
    </resource>
  </entry>
  <entry>
    <fullUrl value="Practitioner/practitioner-bser-henry-seven" />
    <resource>
      <Practitioner xmlns="http://hl7.org/fhir">
        <id value="practitioner-bser-henry-seven" />
        <meta>
          <versionId value="2" />
          <lastUpdated value="2020-01-17T23:52:20.000-05:00" />
          <profile value="http://hl7.org/fhir/us/core/StructureDefinition/us-core-practitioner" />
        </meta>
        <text>
          <status value="generated" />
          <div xmlns="http://www.w3.org/1999/xhtml">
            <table>
              <tr>
                <td style="font-weight: bold">id</td>
                <td>
                  <span title="id">practitioner-bser-henry-seven</span>
                </td>
              </tr>
              <tr>
                <td style="font-weight: bold">meta</td>
                <td>
                  <table>
                    <tr>
                      <td style="font-weight: bold">versionId</td>
                      <td>
                        <span title="versionId">6</span>
                      </td>
                    </tr>
                    <tr>
                      <td style="font-weight: bold">lastUpdated</td>
                      <td>
                        <span title="lastUpdated">2019-10-05T02:50:13.000-04:00</span>
                      </td>
                    </tr>
                    <tr>
                      <td style="font-weight: bold">profile</td>
                      <td>
                        <span title="profile">http://hl7.org/fhir/us/core/StructureDefinition/us-core-practitioner</span>
                      </td>
                    </tr>
                  </table>
                </td>
              </tr>
              <tr>
                <td style="font-weight: bold">identifier</td>
                <td>
                  <ul style="list-style:none; padding-left:0; margin:0 0;">
                    <li>
                      <span title="system">
                        <a href="http://hl7.org/fhir/sid/us-npi">http://hl7.org/fhir/sid/us-npi</a>
                      </span>
                    </li>
                    <li>
                      <span title="value">9941339108</span>
                    </li>
                  </ul>
                </td>
              </tr>
              <tr>
                <td style="font-weight: bold">name</td>
                <td>
                  <table>
                    <tr>
                      <td style="font-weight: bold">family</td>
                      <td>
                        <span title="family">Henry</span>
                      </td>
                    </tr>
                    <tr>
                      <td style="font-weight: bold">given</td>
                      <td>
                        <span title="given">Seven</span>
                      </td>
                    </tr>
                    <tr>
                      <td style="font-weight: bold">suffix</td>
                      <td>
                        <span title="suffix">M.D.</span>
                      </td>
                    </tr>
                  </table>
                </td>
              </tr>
              <tr>
                <td style="font-weight: bold">telecom</td>
                <td>
                  <table>
                    <tr>
                      <td style="font-weight: bold">system</td>
                      <td>
                        <span title="system">email</span>
                      </td>
                    </tr>
                    <tr>
                      <td style="font-weight: bold">value</td>
                      <td>
                        <span title="value">henry.seven@example.com</span>
                      </td>
                    </tr>
                  </table>
                </td>
              </tr>
              <tr>
                <td style="font-weight: bold">address</td>
                <td>
                  <table>
                    <tr>
                      <td style="font-weight: bold">line</td>
                      <td>
                        <span title="line">BMass Doctors</span>
                      </td>
                    </tr>
                    <tr>
                      <td style="font-weight: bold">line</td>
                      <td>
                        <span title="line">2100 North Ave</span>
                      </td>
                    </tr>
                    <tr>
                      <td style="font-weight: bold">city</td>
                      <td>
                        <span title="city">Burlington</span>
                      </td>
                    </tr>
                    <tr>
                      <td style="font-weight: bold">state</td>
                      <td>
                        <span title="state">MA</span>
                      </td>
                    </tr>
                    <tr>
                      <td style="font-weight: bold">postalCode</td>
                      <td>
                        <span title="postalCode">02368</span>
                      </td>
                    </tr>
                    <tr>
                      <td style="font-weight: bold">country</td>
                      <td>
                        <span title="country">US</span>
                      </td>
                    </tr>
                  </table>
                </td>
              </tr>
            </table>
          </div>
        </text>
        <identifier>
          <system value="http://hl7.org/fhir/sid/us-npi" />
          <value value="9941339108" />
        </identifier>
        <name>
          <family value="Henry" />
          <given value="Seven" />
          <suffix value="M.D." />
        </name>
        <telecom>
          <system value="email" />
          <value value="henry.seven@example.com" />
        </telecom>
        <address>
               <line value="BMass Doctors" />
               <line value="2100 North Ave" />
               <city value="Burlington" />
               <state value="MA" />
               <postalCode value="02368" />
               <country value="US" />
            </address>
      </Practitioner>
    </resource>
  </entry>
  <entry>
    <fullUrl value="Organization/organization-bser-organization-saint-luke" />
    <resource>
      <Organization xmlns="http://hl7.org/fhir">
        <id value="organization-bser-organization-saint-luke" />
        <meta>
          <versionId value="6" />
          <lastUpdated value="2020-01-20T17:34:47.000-05:00" />
          <profile value="http://hl7.org/fhir/us/bser/StructureDefinition/BSeR-Organization" />
        </meta>
        <text>
          <status value="generated" />
          <div xmlns="http://www.w3.org/1999/xhtml">
            <table>
              <tr>
                <td style="font-weight: bold">id</td>
                <td>
                  <div title="id">organization-bser-organization-saint-luke</div>
                </td>
              </tr>
              <tr>
                <td style="font-weight: bold">meta</td>
                <td>
                  <table>
                    <tr>
                      <td style="font-weight: bold">versionId</td>
                      <td>
                        <div title="versionId">4</div>
                      </td>
                    </tr>
                    <tr>
                      <td style="font-weight: bold">lastUpdated</td>
                      <td>
                        <div title="lastUpdated">2020-01-18T00:12:24.000-05:00</div>
                      </td>
                    </tr>
                    <tr>
                      <td style="font-weight: bold">profile</td>
                      <td>
                        <div title="profile">http://hl7.org/fhir/us/bser/StructureDefinition/BSeR-Organization</div>
                      </td>
                    </tr>
                  </table>
                </td>
              </tr>
              <tr>
                <td style="font-weight: bold">identifier</td>
                <td>
                  <ul style="list-style:none; padding-left:0; margin:0 0;">
                    <li>
                      <div title="system">
                        <a href="http://example.org/fhir/sid/us-npi">http://example.org/fhir/sid/us-npi</a>
                      </div>
                    </li>
                    <li>
                      <div title="value">1063494177</div>
                    </li>
                  </ul>
                </td>
              </tr>
              <tr>
                <td style="font-weight: bold">identifier</td>
                <td>
                  <ul style="list-style:none; padding-left:0; margin:0 0;">
                    <li>
                      <div title="system">
                        <a href="http://example.org/fhir/us/argo/sid/us-ein">http://example.org/fhir/us/argo/sid/us-ein</a>
                      </div>
                    </li>
                    <li>
                      <div title="value">00-0000000</div>
                    </li>
                  </ul>
                </td>
              </tr>
              <tr>
                <td style="font-weight: bold">active</td>
                <td>
                  <div title="active">true</div>
                </td>
              </tr>
              <tr>
                <td style="font-weight: bold">type</td>
                <td>
                  <ul style="list-style:none; padding-left:0; margin:0 0;">
                    <li>
                      <ul style="list-style:none; padding-left:0; margin:0 0;">
                        <li>
                          <div title="display">Healthcare Provider</div> (
                                       <div title="code">prov</div> ) 
                                    </li>
                        <li>
                          <div title="system">
                            <a href="http://terminology.hl7.org/CodeSystem/organization-type">http://terminology.hl7.org/CodeSystem/organization-type</a>
                          </div>
                        </li>
                      </ul>
                    </li>
                  </ul>
                </td>
              </tr>
              <tr>
                <td style="font-weight: bold">name</td>
                <td>
                  <div title="name">Saint Luke's Hospital of Kansas City</div>
                </td>
              </tr>
              <tr>
                <td style="font-weight: bold">telecom</td>
                <td>
                  <table>
                    <tr>
                      <td style="font-weight: bold">system</td>
                      <td>
                        <div title="system">phone</div>
                      </td>
                    </tr>
                    <tr>
                      <td style="font-weight: bold">value</td>
                      <td>
                        <div title="value">(816)932-2000</div>
                      </td>
                    </tr>
                    <tr>
                      <td style="font-weight: bold">use</td>
                      <td>
                        <div title="use">work</div>
                      </td>
                    </tr>
                  </table>
                </td>
              </tr>
              <tr>
                <td style="font-weight: bold">telecom</td>
                <td>
                  <table>
                    <tr>
                      <td style="font-weight: bold">system</td>
                      <td>
                        <div title="system">other</div>
                      </td>
                    </tr>
                    <tr>
                      <td style="font-weight: bold">value</td>
                      <td>
                        <div title="value">http://www.saintlukeshealthsystem.org/locations/saint-lukes-hospital-kansas-city</div>
                      </td>
                    </tr>
                    <tr>
                      <td style="font-weight: bold">use</td>
                      <td>
                        <div title="use">work</div>
                      </td>
                    </tr>
                  </table>
                </td>
              </tr>
              <tr>
                <td style="font-weight: bold">address</td>
                <td>
                  <table>
                    <tr>
                      <td style="font-weight: bold">line</td>
                      <td>
                        <div title="line">4401 Wornall Rd,</div>
                      </td>
                    </tr>
                    <tr>
                      <td style="font-weight: bold">city</td>
                      <td>
                        <div title="city">Amherst</div>
                      </td>
                    </tr>
                    <tr>
                      <td style="font-weight: bold">state</td>
                      <td>
                        <div title="state">MA</div>
                      </td>
                    </tr>
                    <tr>
                      <td style="font-weight: bold">postalCode</td>
                      <td>
                        <div title="postalCode">64111</div>
                      </td>
                    </tr>
                  </table>
                </td>
              </tr>
            </table>
          </div>
        </text>
        <identifier>
          <system value="http://example.org/fhir/sid/us-npi" />
          <value value="1063494177" />
        </identifier>
        <identifier>
          <system value="http://example.org/fhir/us/argo/sid/us-ein" />
          <value value="00-0000000" />
        </identifier>
        <active value="true" />
        <type>
          <coding>
            <system value="http://terminology.hl7.org/CodeSystem/organization-type" />
            <code value="prov" />
            <display value="Healthcare Provider" />
          </coding>
        </type>
        <name value="Saint Luke's Hospital of Kansas City" />
        <telecom>
          <system value="phone" />
          <value value="(816)932-2000" />
          <use value="work" />
        </telecom>
        <telecom>
          <system value="other" />
          <value value="http://www.saintlukeshealthsystem.org/locations/saint-lukes-hospital-kansas-city" />
          <use value="work" />
        </telecom>
        <address>
               <line value="4401 Wornall Rd," />
               <city value="Amherst" />
               <state value="MA" />
               <postalCode value="64111" />
            </address>
      </Organization>
    </resource>
  </entry>
</Bundle>
